"Time (s)","Acceleration x (m/s^2)","Acceleration y (m/s^2)","Acceleration z (m/s^2)"
0.000000000E0,-7.450755596E0,6.866570473E0,3.457227230E0
2.499531200E-2,-8.935160637E0,5.975927353E0,4.309563160E0
4.999218700E-2,-8.954314232E0,6.694188118E0,4.711789131E0
7.498906200E-2,-6.895300865E0,7.402871609E0,4.185064793E0
9.998593700E-2,-5.133168221E0,6.387730122E0,4.012681961E0
1.249812500E-1,-4.424484730E0,5.123591423E0,5.841852188E0
1.450046870E-1,-4.328716755E0,4.127603531E0,6.148310184E0
1.700015620E-1,-4.548983097E0,3.045424461E0,6.014234543E0
1.949968750E-1,-5.334281445E0,2.700659513E0,6.598419666E0
2.199937500E-1,-6.617573261E0,1.810016513E0,6.952761650E0
2.449906250E-1,-6.962338448E0,1.618480325E0,7.374141216E0
2.699859370E-1,-6.062118530E0,7.374141216E-1,7.920019150E0
2.949828120E-1,-5.056553841E0,1.513135433E0,6.224924564E0
3.150046870E-1,-4.979939461E0,2.729389906E0,6.636727333E0
3.400015620E-1,-5.372588634E0,3.265691042E0,7.872135162E0
3.649984370E-1,-7.565677166E0,2.585737705E-1,8.753201485E0
3.899968750E-1,-7.297526836E0,-3.926490843E-1,7.326257229E0
4.100265620E-1,-6.828263283E0,6.512228847E-1,6.732495308E0
4.349812500E-1,-6.339846134E0,9.576806799E-3,7.757213593E0
4.550031250E-1,-6.847416878E0,1.819593310E0,8.360552788E0
4.800015620E-1,-5.947196960E0,-2.394201756E-1,6.895300865E0
5.049968750E-1,-5.880159378E0,-8.427590132E-1,8.695740700E0
5.299937500E-1,-7.632715225E0,7.757213712E-1,8.379706383E0
5.549906250E-1,-7.220912457E0,9.002198577E-1,7.517793179E0
5.799859370E-1,-6.560112476E0,-1.723825186E-1,7.613561630E0
6.049828120E-1,-7.833827972E0,6.991068721E-1,6.933608055E0
6.250046870E-1,-7.709329605E0,4.213795066E-1,7.661445618E0
6.500046870E-1,-6.042964935E0,8.619125932E-2,7.077260017E0
6.749984370E-1,-4.127603531E0,3.351882398E-1,6.521805286E0
6.999953120E-1,-4.232948780E0,-1.656787634E0,6.368576527E0
7.249906250E-1,-4.424484730E0,-2.892195702E0,6.282385349E0
7.499875000E-1,-3.275267839E0,-1.158793569E0,5.841852188E0
7.749843750E-1,-3.543418646E-1,-2.489969730E0,9.797073364E0
7.950062500E-1,-1.752555609E0,-3.227383852E0,1.087925243E1
8.200015620E-1,-4.299986362E0,-3.600879431E0,1.230619717E1
8.450000000E-1,-6.560112476E0,-6.129156351E-1,1.085052204E1
8.700015620E-1,-7.642292023E0,5.075707436E-1,9.021351814E0
8.949921870E-1,-8.437167168E0,1.857900500E0,7.824251175E0
9.199890620E-1,-8.236053467E0,6.033388376E-1,7.594407558E0
9.449859370E-1,-7.977479935E0,1.848323703E0,6.732495308E0
9.699828120E-1,-5.066130638E0,2.585737705E-1,8.006210327E0
9.900031250E-1,3.064578176E-1,7.182605267E-1,7.077260017E0
1.010032812E0,2.260126352E0,-1.149216816E-1,7.508216381E0
1.034990625E0,-3.447650373E-1,-3.888183594E0,9.787496567E0
1.059987500E0,-4.769249916E0,-2.576161146E0,1.176989555E1
1.084984375E0,-6.148310184E0,1.551442742E0,1.189439392E1
1.109981250E0,-6.358999729E0,3.418920040E0,8.427590370E0
1.130003125E0,-6.751648903E0,3.198653460E0,8.877699852E0
1.150014062E0,-3.160346270E0,3.476380825E0,9.825803757E0
1.174990625E0,-1.436520964E-1,2.796427488E0,7.690176010E0
1.199989062E0,1.072602391E0,3.734954596E-1,9.490615845E0
1.224984375E0,9.959878922E-1,-3.093308687E0,9.461885452E0
1.245006250E0,-1.034295082E0,-2.930502892E0,8.647856712E0
1.270003125E0,-1.340752959E0,3.064578176E-1,9.308655739E0
1.294998437E0,-5.937620401E-1,2.518700123E0,9.940725327E0
1.319995312E0,-4.213795066E-1,1.350329757E0,1.094629002E1
1.344990625E0,-5.458779931E-1,1.618480325E0,1.171243477E1
1.369989062E0,2.853888512E0,1.254561663E0,1.014183807E1
1.394984375E0,2.193088770E0,-2.777273953E-1,1.086967564E1
1.419981250E0,1.063025594E0,1.264138460E0,9.730035782E0
1.440003125E0,-6.512228847E-1,3.236960649E0,8.820239067E0
1.465000000E0,-4.788403511E-1,3.629609823E0,9.232041359E0
1.489996875E0,8.236053586E-1,3.323152065E0,8.571242332E0
1.514992187E0,1.225831270E0,3.409343243E0,9.002198219E0
1.539989062E0,1.206677675E0,3.083731890E0,7.153874874E0
1.564984375E0,-5.075707436E-1,2.748543501E0,8.350975990E0
1.589982812E0,-3.734954596E-1,3.878606796E0,8.532935143E0
1.610004687E0,-2.873041928E-1,4.041412354E0,8.944737434E0
1.635000000E0,5.363011956E-1,3.428496838E0,1.077390766E1
1.659996875E0,9.193734527E-1,4.194641590E0,9.643844604E0
1.684993750E0,3.160346150E-1,5.583278179E0,8.829815865E0
1.709989062E0,1.446097851E0,5.640739441E0,8.647856712E0
1.734985937E0,1.465251446E0,4.261679173E0,9.481039047E0
1.759982812E0,2.135627985E0,4.060565948E0,8.619126320E0
1.780006250E0,-7.661445439E-2,4.022258759E0,8.561665535E0
1.800023437E0,-7.469909191E-1,4.261679173E0,8.216899872E0
1.824992187E0,1.149216771E0,4.280832767E0,7.498639584E0
1.849993750E0,2.758120298E0,4.414907932E0,8.121131897E0
1.874985937E0,3.763684988E0,4.453215122E0,8.207323074E0
1.899984375E0,2.863465309E0,5.449203014E0,7.412448406E0
1.920006250E0,3.217807055E0,6.675034523E0,8.724471092E0
1.945000000E0,3.964797974E0,6.426037312E0,7.402871609E0
1.969996875E0,3.543418407E0,5.956773758E0,8.973467827E0
1.994993750E0,2.470816135E0,6.952761650E0,7.508216381E0
2.019990625E0,6.799532771E-1,8.092401505E0,6.090848923E0
2.044985937E0,-4.501099288E-1,8.054094315E0,7.651868820E0
2.069984375E0,7.661445141E-1,7.623138428E0,7.623138428E0
2.090006250E0,1.417367458E0,6.971915245E0,7.479485989E0
2.110025000E0,1.254561663E0,6.311115742E0,6.914454460E0
2.134992187E0,1.235408068E0,6.742072105E0,7.383718014E0
2.159989062E0,1.158793569E0,8.159439087E0,7.134721279E0
2.184985937E0,9.193734527E-1,7.757213593E0,6.981492043E0
2.209984375E0,7.661445141E-1,6.770802498E0,6.215347767E0
2.230004687E0,-3.256114423E-1,6.167463779E0,5.793968201E0
2.255000000E0,-2.585737705E-1,8.006210327E0,6.426037312E0
2.279998437E0,-1.043871999E0,1.023760605E1,5.516240597E0
2.304993750E0,5.458779931E-1,9.232041359E0,6.090848923E0
2.329990625E0,2.422932148E0,9.921571732E0,7.489062786E0
2.354985937E0,2.815581083E0,9.394847870E0,5.889736176E0
2.379984375E0,2.671929121E0,7.584830761E0,4.089296341E0
2.400004687E0,1.742978811E0,5.669469833E0,4.970362663E0
2.420009375E0,1.034295082E0,4.970362663E0,6.110002518E0
2.444992187E0,4.596867263E-1,5.803544998E0,7.010222435E0
2.469990625E0,-1.915361360E-2,7.977479935E0,7.029376030E0
2.494985937E0,1.053448766E-1,9.739612579E0,6.540958881E0
2.519982812E0,9.576806799E-3,8.906430244E0,6.847416878E0
2.540004687E0,3.734954596E-1,7.498639584E0,6.780379295E0
2.565001562E0,1.379060149E0,7.249642849E0,5.937620163E0
2.589998437E0,1.493981838E0,7.556100368E0,5.295974255E0
2.614993750E0,1.043871999E0,7.345410824E0,5.861005783E0
2.639990625E0,1.321599364E0,7.910442352E0,7.718906403E0
2.664985937E0,1.790862918E0,9.059659004E0,8.494627953E0
2.689982812E0,1.771709204E0,9.126696587E0,7.623138428E0
2.710006250E0,1.637633920E0,7.872135162E0,7.230489254E0
2.730043750E0,9.672574997E-1,7.307103634E0,6.569689274E0
2.754993750E0,1.561019540E0,6.847416878E0,5.774814606E0
2.779989062E0,1.781286120E0,6.416460514E0,6.991068840E0
2.804984375E0,1.273715258E0,5.793968201E0,7.498639584E0
2.824992187E0,1.206677675E0,5.908889771E0,7.690176010E0
2.844998437E0,1.139639974E0,6.818686485E0,7.441178799E0
2.869995312E0,1.513135433E0,7.757213593E0,7.163451672E0
2.894990625E0,1.771709204E0,8.236053467E0,7.048529625E0
2.919990625E0,1.771709204E0,7.019799232E0,7.201758862E0
2.944984375E0,6.799532771E-1,4.855441093E0,8.628703117E0
2.969982812E0,5.267243981E-1,3.562572241E0,8.465897560E0
2.990003125E0,-4.022258818E-1,3.284844637E0,8.542511940E0
3.015000000E0,2.777273953E-1,3.447650433E0,8.312667847E0
3.039996875E0,8.331822157E-1,5.008669853E0,9.165003777E0
3.064993750E0,4.213795066E-1,6.531382084E0,9.069235802E0
3.089989062E0,2.394201756E-1,6.971915245E0,8.801085472E0
3.114985937E0,6.416460276E-1,6.224924564E0,9.433155060E0
3.139982812E0,1.771709204E0,5.248090267E0,9.787496567E0
3.160004687E0,1.350329757E0,4.587290287E0,8.686163902E0
3.180006250E0,2.873041928E-1,4.060565948E0,8.044517517E0
3.204992187E0,-8.236053586E-1,4.319139957E0,8.743624687E0
3.229989062E0,-1.752555609E0,4.443638325E0,9.548076630E0
3.249992187E0,-1.608903527E0,3.821146011E0,1.015141487E1
3.270001562E0,-7.661445141E-1,3.543418407E0,1.037168217E1
3.294998437E0,3.926490843E-1,4.041412354E0,9.471462250E0
3.319995312E0,1.331176162E0,3.313575268E0,8.523358345E0
3.340015625E0,1.120486379E0,2.758120298E0,8.264783859E0
3.364981250E0,3.447650373E-1,3.055001259E0,7.843404770E0
3.385004687E0,-1.723825186E-1,3.715801001E0,8.992621422E0
3.410001562E0,-6.799532771E-1,3.600879431E0,9.854534149E0
3.434996875E0,-1.158793569E0,2.853888512E0,8.791508675E0
3.459993750E0,-8.906430602E-1,1.532289028E0,1.074517727E1
3.484989062E0,-8.331822157E-1,1.666364431E0,1.063025570E1
3.510017187E0,-1.110909581E0,2.240972757E0,8.609549522E0
3.534982812E0,-4.309563041E-1,1.695094824E0,8.197746277E0
3.555004687E0,-1.991975784E0,1.446097851E0,9.270348549E0
3.580003125E0,-2.212242365E0,2.202665567E0,8.264783859E0
3.600012500E0,-2.240972757E0,1.244984865E0,9.787496567E0
3.624989062E0,-1.934514999E0,-9.576806799E-3,9.050082207E0
3.649985937E0,-2.020706177E0,-6.703764945E-2,1.018972206E1
3.674982812E0,-1.177947283E0,5.841852427E-1,9.270348549E0
3.695003125E0,-1.628057122E0,1.082179189E0,8.925583839E0
3.720001562E0,-2.269703150E0,4.596867263E-1,8.169015884E0
3.744996875E0,-1.790862918E0,-2.298433632E-1,8.188169479E0
3.769993750E0,-2.298433542E0,-3.160346150E-1,1.016099167E1
3.794989062E0,-6.129156351E-1,8.810662031E-1,9.030928612E0
3.819985937E0,-2.624045134E0,-1.350329757E0,1.100375080E1
3.844982812E0,-1.130063176E0,4.118026793E-1,8.992621422E0
3.865004687E0,-3.150769472E0,9.672574997E-1,8.111555099E0
3.890003125E0,-2.691082716E0,7.661445439E-2,8.992621422E0
3.914998437E0,-1.618480325E0,-4.788403511E-1,8.619126320E0
3.939995312E0,-1.666364431E0,1.101332784E0,1.000776291E1
3.964990625E0,1.043871999E0,1.589749932E0,7.651868820E0
3.989987500E0,-1.053448796E0,-6.703764796E-1,9.624691010E0
4.014984375E0,-4.979939461E-1,-2.212242365E0,1.072602367E1
4.039981250E0,-1.063025594E0,-8.044517636E-1,1.025675964E1
4.060003125E0,-1.790862918E0,1.656787634E0,1.025675964E1
4.085000000E0,-6.416460276E-1,3.217807055E0,8.322244644E0
4.110015625E0,-2.777273953E-1,2.758120298E0,8.398859978E0
4.134992187E0,5.650315881E-1,2.240972757E0,8.236053467E0
4.160012500E0,1.024718285E0,1.580173135E0,8.791508675E0
4.184984375E0,1.130063176E0,1.522712231E0,9.662998199E0
4.209996875E0,5.075707436E-1,2.039859772E0,1.063025570E1
4.230003125E0,4.022258818E-1,3.390189648E0,9.605537415E0
4.255000000E0,9.481038451E-1,5.248090267E0,8.801085472E0
4.279998437E0,6.416460276E-1,6.713341713E0,7.556100368E0
4.300018750E0,2.681505978E-1,6.837840080E0,7.086836815E0
4.325006250E0,7.086837292E-1,4.338293552E0,8.226476669E0
4.349981250E0,1.244984865E-1,3.112462282E0,8.245630264E0
4.370009375E0,-4.213795066E-1,4.060565948E0,7.431602001E0
4.395000000E0,-3.734954596E-1,6.636727333E0,7.134721279E0
4.419995312E0,3.064578176E-1,7.498639584E0,8.063671112E0
4.444992187E0,2.212242365E0,6.493074894E0,8.686163902E0
4.469989062E0,2.317587137E0,6.780379295E0,7.690176010E0
4.494985937E0,2.202665567E0,6.780379295E0,7.814674377E0
4.519982812E0,2.078166962E0,7.718906403E0,7.450755596E0
4.540004687E0,1.618480325E0,8.389283180E0,7.891288757E0
4.565000000E0,2.212242365E0,7.967903137E0,7.738059998E0
4.589996875E0,2.011129379E0,7.546523571E0,7.431602001E0
4.610003125E0,1.810016513E0,6.847416878E0,7.517793179E0
4.634984375E0,1.340752959E0,6.512228489E0,6.742072105E0
4.659981250E0,4.596867263E-1,6.167463779E0,5.765237808E0
4.680003125E0,8.810662031E-1,6.770802498E0,5.841852188E0
4.705000000E0,1.637633920E0,7.201758862E0,6.358999729E0
4.729996875E0,9.864110947E-1,7.967903137E0,6.167463779E0
4.754992187E0,1.101332784E0,8.456320763E0,6.607996464E0
4.779989062E0,1.474828243E0,8.264783859E0,7.326257229E0
4.804985937E0,1.302445769E0,7.939172745E0,6.866570473E0
4.829982812E0,7.661445439E-2,8.456320763E0,6.368576527E0
4.850028125E0,5.458779931E-1,8.379706383E0,6.512228489E0
4.875000000E0,5.075707436E-1,8.446743965E0,8.082824707E0
4.899998437E0,1.407790542E0,8.523358345E0,8.293514252E0
4.924993750E0,1.982398987E0,9.145850182E0,7.345410824E0
4.950031250E0,1.130063176E0,9.050082207E0,5.276820660E0
4.974985937E0,1.991975784E0,7.910442352E0,5.707777023E0
5.000014062E0,2.355894566E0,6.397306919E0,7.364564419E0
5.024979687E0,1.350329757E0,5.238513470E0,7.527369976E0
5.045001562E0,1.608903527E0,5.410895824E0,6.454767704E0
5.070023437E0,1.695094824E0,6.493074894E0,5.966350555E0
5.094995312E0,9.959878922E-1,7.354987621E0,7.690176010E0
5.119990625E0,1.359906554E0,8.226476669E0,8.609549522E0
5.144987500E0,8.810662031E-1,7.575253963E0,8.580819130E0
5.169984375E0,1.149216771E0,6.272808552E0,9.366117477E0
5.190007812E0,2.269703150E0,5.640739441E0,9.279925346E0
5.215003125E0,3.016694069E0,5.832275391E0,7.546523571E0
5.240010937E0,2.183511972E0,7.086836815E0,7.029376030E0
5.264995312E0,6.991068721E-1,7.278373241E0,7.795520782E0
5.289992187E0,-8.714894056E-1,5.688623428E0,8.283937454E0
5.314989062E0,-1.972822189E0,4.587290287E0,8.638279915E0
5.339985937E0,-2.020706177E0,5.075707436E0,8.657433510E0
5.364981250E0,-4.979939461E-1,5.363011837E0,7.757213593E0
5.385003125E0,5.746083856E-1,4.510675907E0,8.667010307E0
5.410001562E0,1.417367458E0,3.993528366E0,9.873687744E0
5.434996875E0,8.810662031E-1,3.256114244E0,8.724471092E0
5.459993750E0,2.873042040E-2,2.700659513E0,8.599972725E0
5.484989062E0,2.202665508E-1,3.323152065E0,9.117119789E0
5.509992187E0,-1.254561663E0,3.409343243E0,1.046745014E1
5.534982812E0,-1.695094824E0,3.447650433E0,1.015141487E1
5.555004687E0,-2.049436569E0,2.489969730E0,9.567230225E0
5.580001562E0,-7.469909191E-1,1.790862918E0,9.452308655E0
5.604998437E0,-3.639186621E-1,2.806004286E0,8.590395927E0
5.630028125E0,-7.757213712E-1,2.882618904E0,7.814674377E0
5.654990625E0,-7.757213712E-1,7.661445141E-1,8.590395927E0
5.679987500E0,-1.331176162E0,-4.309563041E-1,9.040505409E0
5.699993750E0,-2.719813108E0,3.830722719E-2,9.184157372E0
5.720001562E0,-3.351882458E0,5.267243981E-1,7.565677166E0
5.744996875E0,-3.840299606E0,-1.723825186E-1,8.868123055E0
5.770031250E0,-4.328716755E0,-1.915361285E-1,9.730035782E0
5.794989062E0,-1.982398987E0,-1.551442742E0,1.021845245E1
5.819985937E0,-5.937620401E-1,-5.841852427E-1,8.350975990E0
5.839987500E0,-1.857900500E0,1.063025594E0,9.270348549E0
5.860000000E0,-1.570596337E0,2.643198729E0,8.236053467E0
5.884995312E0,-1.254561663E0,1.072602391E0,8.523358345E0
5.909992187E0,-2.729389906E0,4.022258818E-1,8.274360657E0
5.934989062E0,-2.116474390E0,0.000000000E0,9.528923035E0
5.959985937E0,-9.576807022E-1,4.788403213E-2,8.877699852E0
5.984981250E0,-1.110909581E0,1.244984865E-1,1.092713642E1
6.005004687E0,2.394201756E-1,7.469909191E-1,9.509769440E0
6.030000000E0,-4.022258818E-1,1.733402014E0,8.523358345E0
6.050006250E0,-1.053448796E0,1.991975784E0,9.548076630E0
6.074987500E0,-2.394201756E-1,1.848323703E0,6.809109688E0
6.099985937E0,-2.173935175E0,1.695094824E0,8.628703117E0
6.124981250E0,-7.086837292E-1,1.723825216E0,9.423578262E0
6.145003125E0,-8.619125932E-2,1.848323703E0,9.864110947E0
6.170000000E0,5.171475410E-1,2.901772499E0,9.615114212E0
6.190010937E0,1.292868972E0,4.050989151E0,8.599972725E0
6.214985937E0,4.979939461E-1,4.558559895E0,9.366117477E0
6.239984375E0,6.129156351E-1,4.568136692E0,9.126696587E0
6.260006250E0,9.289502501E-1,4.386177540E0,7.910442352E0
6.285001562E0,3.064578176E-1,4.520252705E0,8.475474358E0
6.309998437E0,2.873042040E-2,5.181052685E0,8.312667847E0
6.330017187E0,4.788403213E-2,5.765237808E0,8.590395927E0
6.354985937E0,1.216254473E0,6.914454460E0,7.565677166E0
6.379982812E0,9.768342972E-1,7.498639584E0,7.220912457E0
6.400004687E0,1.063025594E0,7.029376030E0,7.278373241E0
6.425001562E0,1.264138460E0,5.123591423E0,9.174580574E0
6.449996875E0,1.273715258E0,5.669469833E0,8.868123055E0
6.470034375E0,5.650315881E-1,7.431602001E0,7.900865555E0
6.494984375E0,3.830722570E-1,9.327810287E0,6.617573261E0
6.519981250E0,9.576806426E-2,9.615114212E0,6.607996464E0
6.540003125E0,5.554547906E-1,8.456320763E0,6.837840080E0
6.565000000E0,1.139639974E0,6.617573261E0,6.512228489E0
6.589996875E0,1.168370485E0,5.755661011E0,6.253654957E0
6.614993750E0,1.024718285E0,6.713341713E0,6.014234543E0
6.639990625E0,1.120486379E0,8.236053467E0,6.148310184E0
6.664985937E0,1.072602391E0,9.078812599E0,7.431602001E0
6.689982812E0,2.212242365E0,9.672574997E0,7.632715225E0
6.710006250E0,2.853888512E0,9.567230225E0,7.498639584E0
6.735001562E0,2.327163935E0,8.801085472E0,6.387730122E0
6.759998437E0,1.063025594E0,7.977479935E0,5.631162167E0
6.784993750E0,6.224924326E-1,7.249642849E0,5.525817394E0
6.809990625E0,9.289502501E-1,7.508216381E0,6.454767704E0
6.834987500E0,9.768342972E-1,7.393294811E0,5.975927353E0
6.859984375E0,1.024718285E0,7.584830761E0,5.640739441E0
6.880006250E0,1.340752959E0,7.987056732E0,6.569689274E0
6.905001562E0,1.474828243E0,9.279925346E0,7.805097580E0
6.930000000E0,4.979939461E-1,1.008437729E1,9.279925346E0
6.950004687E0,7.948749661E-1,9.471462250E0,8.379706383E0
6.974985937E0,2.624045134E0,7.718906403E0,7.048529625E0
6.999982812E0,3.418920040E0,6.531382084E0,6.742072105E0
7.020006250E0,3.361459255E0,5.726930618E0,6.761225700E0
7.045001562E0,2.135627985E0,5.018246651E0,7.105990410E0
7.070031250E0,7.948749661E-1,4.845864296E0,8.513781548E0
7.094993750E0,-1.982398987E0,5.765237808E0,8.686163902E0
7.119990625E0,-1.503558636E0,5.793968201E0,7.613561630E0
7.144987500E0,-1.149216816E-1,5.295974255E0,7.795520782E0
7.170000000E0,1.465251446E0,4.788403511E0,8.906430244E0
7.190006250E0,1.436521053E0,6.205770969E0,9.998186111E0
7.210018750E0,2.375048161E0,6.052541733E0,9.969455719E0
7.234993750E0,1.321599364E0,5.755661011E0,9.519346237E0
7.259990625E0,-1.848323703E0,5.382165432E0,8.571242332E0
7.284985937E0,-1.905784607E0,3.380612850E0,9.586383820E0
7.309981250E0,-5.554547906E-1,2.557007313E0,8.552088737E0
7.330006250E0,-9.959878922E-1,2.834734917E0,8.714894295E0
7.355001562E0,-1.312022567E0,3.667917013E0,7.220912457E0
7.380006250E0,-3.447650373E-1,2.748543501E0,7.077260017E0
7.404993750E0,-5.554547906E-1,5.554547906E-1,1.061110210E1
7.429990625E0,-2.269703150E0,9.672574997E-1,9.279925346E0
7.449995312E0,-1.436521053E0,1.752555609E0,6.579266071E0
7.470004687E0,-1.991975784E0,1.819593310E-1,8.944737434E0
7.495000000E0,-3.849876404E0,2.873041928E-1,9.730035782E0
7.519996875E0,-2.413355350E0,3.830722719E-2,8.398859978E0
7.544993750E0,-1.800439715E0,-2.202665508E-1,7.948749542E0
7.569990625E0,-6.991068721E-1,-1.599326730E0,9.241618156E0
7.594985937E0,-1.244984865E-1,8.619126081E-1,8.418013573E0
7.619982812E0,-1.101332784E0,1.331176162E0,8.274360657E0
7.640006250E0,-1.829170108E0,-2.106897533E-1,9.509769440E0
7.665001562E0,-1.177947283E0,-1.484405041E0,9.509769440E0
7.690023437E0,-3.256114423E-1,-8.140285611E-1,8.705317497E0
7.714995312E0,-1.187524080E0,1.024718285E0,8.283937454E0
7.739990625E0,-1.158793569E0,7.374141216E-1,8.264783859E0
7.764987500E0,-1.225831270E0,-1.915361360E-2,8.753201485E0
7.789984375E0,-7.948749661E-1,1.723825186E-1,9.232041359E0
7.810006250E0,9.576806426E-2,9.672574997E-1,9.730035782E0
7.835003125E0,5.363011956E-1,1.091755986E0,9.040505409E0
7.860000000E0,-5.746084079E-2,1.580173135E0,9.299078941E0
7.884995312E0,2.394201756E-1,2.020706177E0,8.896853447E0
7.909996875E0,6.320692301E-1,1.877054095E0,8.954314232E0
7.934987500E0,1.139639974E0,2.499546528E0,9.299078941E0
7.959984375E0,1.493981838E0,3.955221176E0,8.762778282E0
7.984981250E0,5.171475410E-1,4.520252705E0,8.667010307E0
8.005003125E0,-1.819593310E-1,4.242525578E0,8.590395927E0
8.030000000E0,-1.446097851E0,4.194641590E0,8.590395927E0
8.050029687E0,-3.830722719E-2,4.625597477E0,8.532935143E0
8.074987500E0,4.501099288E-1,5.506663799E0,7.833827972E0
8.099984375E0,8.523358107E-1,7.345410824E0,7.469909191E0
8.120006250E0,8.331822157E-1,7.402871609E0,7.211335659E0
8.145003125E0,1.857900500E0,6.856993675E0,7.508216381E0
8.170000000E0,2.087743998E0,6.167463779E0,7.862558365E0
8.194995312E0,2.719813108E0,6.110002518E0,8.274360657E0
8.219992187E0,2.240972757E0,6.263231754E0,7.335834026E0
8.244989062E0,1.771709204E0,7.268796444E0,7.086836815E0
8.269985937E0,2.240972757E0,8.868123055E0,6.751648903E0
8.294981250E0,2.920926094E0,1.069729328E1,6.914454460E0
8.315003125E0,2.499546528E0,1.089840603E1,7.929595947E0
8.340001562E0,1.915361404E0,9.835380554E0,6.454767704E0
8.364996875E0,5.554547906E-1,7.785943985E0,5.209783077E0
8.389993750E0,-2.681505978E-1,7.575253963E0,5.449203014E0
8.414989062E0,7.948749661E-1,8.714894295E0,6.837840080E0
8.439985937E0,9.768342972E-1,1.019929886E1,8.494627953E0
8.464982812E0,5.746083856E-1,8.992621422E0,8.092401505E0
8.485004687E0,2.260126352E0,6.387730122E0,6.627150536E0
8.510001562E0,3.083731890E0,3.112462282E0,6.473921299E0
8.534998437E0,1.762132406E0,4.175487995E0,4.692635536E0
8.559995312E0,5.650315881E-1,7.000645638E0,5.075707436E0
8.584990625E0,7.757213712E-1,1.011310768E1,8.839392662E0
8.609987500E0,9.672574997E-1,9.730035782E0,1.074517727E1
8.634982812E0,3.131615877E0,8.973467827E0,1.018972206E1
8.655006250E0,4.299986362E0,7.891288757E0,8.350975990E0
8.680003125E0,3.505111217E0,6.837840080E0,6.368576527E0
8.704998437E0,1.379060149E0,6.110002518E0,7.297526836E0
8.729995312E0,2.106897533E-1,5.880159378E0,7.268796444E0
8.754992187E0,-3.447650373E-1,5.238513470E0,8.475474358E0
8.779987500E0,-1.436520964E-1,5.506663799E0,1.018972206E1
8.804984375E0,7.757213712E-1,5.410895824E0,1.072602367E1
8.829981250E0,3.256114423E-1,4.453215122E0,9.356540680E0
8.850025000E0,7.661445439E-2,4.635174274E0,7.412448406E0
8.875000000E0,-2.298433632E-1,4.376600742E0,7.757213593E0
8.899996875E0,-7.757213712E-1,3.236960649E0,8.829815865E0
8.920018750E0,-2.087743998E0,2.940079689E0,9.040505409E0
8.944982812E0,-1.704671621E0,1.656787634E0,8.705317497E0
8.965006250E0,-4.788403511E-1,1.398213744E0,8.590395927E0
8.990018750E0,3.543418646E-1,2.968810081E0,6.751648903E0
9.014998437E0,9.481038451E-1,2.365471363E0,8.216899872E0
9.039995312E0,-7.661445141E-1,1.532289088E-1,1.005564690E1
9.064992187E0,-2.528276920E0,4.405331016E-1,9.145850182E0
9.089989062E0,-2.959233284E0,1.053448766E-1,1.029506683E1
9.114984375E0,-2.183511972E0,1.321599364E0,8.944737434E0
9.139981250E0,-2.557007313E0,6.129156351E-1,9.423578262E0
9.160004687E0,-1.857900500E0,-1.101332784E0,7.900865555E0
9.185000000E0,-1.043871999E0,-2.068590164E0,8.858546257E0
9.209996875E0,-5.650315881E-1,1.436520964E-1,7.872135162E0
9.234992187E0,-1.015141487E0,5.458779931E-1,8.734047890E0
9.259989062E0,-1.321599364E0,-5.746084079E-2,8.379706383E0
9.284985937E0,-1.120486379E0,6.703764945E-2,8.485051155E0
9.309982812E0,-1.484405041E0,1.312022567E0,8.925583839E0
9.330004687E0,-1.072602391E0,1.053448796E0,8.437167168E0
9.350014062E0,-7.469909191E-1,-5.363011956E-1,7.805097580E0
9.374990625E0,-1.388636947E0,-1.532289088E-1,8.868123055E0
9.399987500E0,-6.703764945E-2,1.254561663E0,8.647856712E0
9.424985937E0,-4.788403213E-2,2.288856745E0,8.159439087E0
9.449981250E0,-4.692635238E-1,2.710236311E0,8.552088737E0
9.470004687E0,-6.799532771E-1,2.509123325E0,8.973467827E0
9.495000000E0,-4.788403213E-2,1.733402014E0,9.011775017E0
9.519996875E0,3.830722570E-1,2.202665567E0,9.097966194E0
9.544993750E0,8.236053586E-1,3.093308687E0,8.724471092E0
9.569990625E0,8.906430602E-1,4.424484730E0,9.193734169E0
9.594985937E0,1.312022567E0,5.525817394E0,8.504204750E0
9.619989062E0,1.053448796E0,6.397306919E0,7.948749542E0
9.640006250E0,8.427590132E-1,6.646304131E0,8.054094315E0
9.665001562E0,3.830722570E-1,6.550535679E0,8.418013573E0
9.690014062E0,7.852981687E-1,6.224924564E0,7.795520782E0
9.710021875E0,1.197100878E0,6.598419666E0,7.173028469E0
9.734985937E0,1.110909581E0,7.508216381E0,7.402871609E0
9.760015625E0,1.790862918E0,7.967903137E0,7.766790390E0
9.784978125E0,2.193088770E0,8.216899872E0,7.738059998E0
9.805000000E0,1.513135433E0,8.686163902E0,7.086836815E0
9.825003125E0,9.097966552E-1,8.820239067E0,7.249642849E0
9.849987500E0,9.576807022E-1,8.437167168E0,6.550535679E0
9.874984375E0,7.852981687E-1,7.709329605E0,6.856993675E0
9.899981250E0,9.768342972E-1,8.216899872E0,7.785943985E0
9.920004687E0,1.053448796E0,8.638279915E0,8.015787125E0
9.944998437E0,9.193734527E-1,9.471462250E0,7.814674377E0
9.969998437E0,7.661445141E-1,1.042914295E1,7.603984833E0
9.994992187E0,2.758120298E0,9.902418137E0,6.234501362E0
1.001998906E1,4.481945515E0,7.364564419E0,6.378153324E0
1.004498438E1,4.079719543E0,4.654327869E0,6.406883717E0
1.006998281E1,1.934514999E0,3.495534420E0,6.454767704E0
1.009000469E1,-1.053448766E-1,5.200206280E0,6.445190907E0
1.011500000E1,-7.469909191E-1,8.255207062E0,7.422025204E0
1.013999688E1,1.848323703E0,9.548076630E0,8.446743965E0
1.016499375E1,2.145204782E0,9.308655739E0,8.408436775E0
1.018999062E1,1.264138460E0,7.623138428E0,7.565677166E0
1.021498594E1,1.541865945E0,5.966350555E0,7.632715225E0
1.023998281E1,2.193088770E0,6.052541733E0,8.513781548E0
1.026000625E1,2.394201756E0,6.943184853E0,9.777919769E0
1.028500156E1,1.637633920E0,7.192182064E0,9.730035782E0
1.030999844E1,-6.799532771E-1,6.177040577E0,7.010222435E0
1.033499375E1,1.628057212E-1,5.066130638E0,7.354987621E0
1.035999062E1,-8.714894056E-1,3.217807055E0,8.619126320E0
1.038498750E1,-2.231395960E0,1.522712231E0,8.638279915E0
1.040998438E1,-1.656787634E0,2.288856745E0,9.385271072E0
1.043000781E1,6.799532771E-1,3.648763418E0,9.088389397E0
1.045500313E1,1.283292055E0,3.955221176E0,7.594407558E0
1.048000000E1,-1.398213744E0,1.637633920E0,7.776367188E0
1.050000313E1,-3.371036053E0,1.043871999E0,7.441178799E0
1.052498594E1,-1.446097851E0,1.273715258E0,1.145386124E1
1.054998281E1,-1.244984865E-1,3.055001259E0,1.080263805E1
1.057000625E1,-1.254561663E0,1.762132406E0,7.556100368E0
1.059500156E1,-2.327163935E0,8.619126081E-1,8.848969460E0
1.061999844E1,-1.896207690E0,-1.225831270E0,1.036210537E1
1.064499531E1,-6.799532771E-1,-9.097966552E-1,8.695740700E0
1.066999219E1,-5.650315881E-1,-1.982398987E0,6.761225700E0
1.069498750E1,-8.427590132E-1,-3.160346150E-1,8.552088737E0
1.071998438E1,-5.841852427E-1,7.852981687E-1,8.858546257E0
1.074000625E1,-8.619126081E-1,-1.589749932E0,7.690176010E0
1.076500312E1,-2.959233284E0,-2.691082716E0,9.145850182E0
1.079000000E1,-2.394201756E-1,1.244984865E0,8.274360657E0
1.081499531E1,-9.481038451E-1,1.819593310E-1,8.992621422E0
1.083999219E1,-1.034295082E0,-3.256114423E-1,9.538499832E0
1.086498750E1,-7.182605267E-1,4.788403511E-1,9.069235802E0
1.088998594E1,-1.695094824E0,1.637633920E0,8.504204750E0
1.091498125E1,-8.619126081E-1,3.438073635E0,9.136273384E0
1.093500313E1,4.788403213E-2,4.118026733E0,8.590395927E0
1.096000000E1,2.011129409E-1,5.707777023E0,1.055364132E1
1.098499688E1,-1.340752989E-1,4.481945515E0,7.987056732E0
1.100999375E1,-1.532289028E0,6.320692301E-1,5.851428986E0
1.103498906E1,-2.327163935E0,7.565677166E-1,6.742072105E0
1.105998594E1,2.873041928E-1,4.050989151E0,8.427590370E0
1.108498281E1,4.386177540E0,6.406883717E0,7.000645638E0
1.110500469E1,5.363011837E0,7.814674377E0,6.483498096E0
1.113000156E1,2.633621931E0,9.308655739E0,8.379706383E0
1.115499688E1,-7.661445439E-2,9.595960617E0,1.075475407E1
1.117999531E1,3.256114423E-1,8.159439087E0,9.797073364E0
1.120000312E1,1.857900500E0,7.077260017E0,7.642292023E0
1.122498125E1,2.365471363E0,7.029376030E0,6.809109688E0
1.124500312E1,2.193088770E0,7.958326340E0,7.153874874E0
1.127000156E1,1.963245392E0,1.059194851E1,6.378153324E0
1.129499688E1,1.848323703E0,1.062067890E1,5.698200226E0
1.131999375E1,1.915361285E-1,8.216899872E0,7.240066051E0
1.134498906E1,6.129156351E-1,7.345410824E0,7.240066051E0
1.137002188E1,2.834734917E0,8.331821442E0,8.236053467E0
1.139498281E1,3.332728863E0,9.988609314E0,7.575253963E0
1.141500469E1,2.470816135E0,9.145850182E0,6.435614109E0
1.144000156E1,2.030282974E0,6.196194172E0,6.358999729E0
1.146499844E1,2.078166962E0,3.715801001E0,5.975927353E0
1.148999375E1,2.662352324E0,4.797980309E0,6.483498096E0
1.151499063E1,1.781286120E0,7.335834026E0,6.301538944E0
1.154001406E1,1.819593310E0,8.025363922E0,6.770802498E0
1.156498281E1,2.260126352E0,6.627150536E0,8.734047890E0
1.158500625E1,1.551442742E0,7.364564419E0,8.437167168E0
1.161000312E1,1.522712231E0,9.145850182E0,9.528923035E0
1.163002188E1,1.714248419E0,9.203310966E0,9.385271072E0
1.165498906E1,1.015141487E0,7.900865555E0,7.048529625E0
1.167998594E1,8.331822157E-1,6.761225700E0,7.249642849E0
1.169999062E1,3.160346150E-1,5.928043365E0,8.963891029E0
1.172000000E1,3.064578176E-1,5.295974255E0,8.983044624E0
1.174499531E1,2.585737705E-1,5.525817394E0,7.977479935E0
1.176999219E1,1.244984865E-1,5.880159378E0,8.647856712E0
1.179498906E1,2.777273953E-1,4.845864296E0,9.461885452E0
1.181998594E1,6.320692301E-1,3.418920040E0,9.040505409E0
1.184498125E1,4.213795066E-1,3.792415380E0,9.892841339E0
1.186500469E1,-1.628057212E-1,3.926490784E0,9.002198219E0
1.189000156E1,-4.979939461E-1,3.284844637E0,8.274360657E0
1.191499688E1,0.000000000E0,3.734954596E0,9.921571732E0
1.193999375E1,-1.158793569E0,3.361459255E0,7.699752808E0
1.196498906E1,-2.863465309E0,-3.064578176E-1,7.335834026E0
1.198999219E1,-3.591302633E0,-1.704671621E0,8.236053467E0
1.201498281E1,-2.777273893E0,-6.224924326E-1,8.274360657E0
1.203500469E1,-2.557007313E0,-4.788403213E-2,7.067683220E0
1.206000156E1,-8.714894056E-1,-4.596867263E-1,6.684611320E0
1.208499844E1,-9.193734527E-1,-9.672574997E-1,8.494627953E0
1.210999531E1,-1.177947283E0,-8.044517636E-1,9.749189377E0
1.213499062E1,-6.416460276E-1,-1.091755986E0,9.854534149E0
1.215998750E1,-1.312022567E0,-1.532289088E-1,8.647856712E0
1.218498438E1,-1.886630893E0,-6.512228847E-1,9.155426979E0
1.220500625E1,-1.302445769E0,-2.011129409E-1,8.935160637E0
1.223002188E1,-1.379060149E0,1.915361285E-1,8.983044624E0
1.225002344E1,-7.469909191E-1,2.298433632E-1,8.724471092E0
1.227498906E1,-3.256114423E-1,1.436520964E-1,8.954314232E0
1.230003281E1,-1.532289088E-1,1.130063176E0,7.900865555E0
1.232498281E1,-3.830722719E-2,1.810016513E0,7.651868820E0
1.234500469E1,-3.926490843E-1,1.714248419E0,8.082824707E0
1.237000156E1,-1.053448796E0,1.666364431E0,8.418013573E0
1.239499844E1,-1.120486379E0,2.231395960E0,8.437167168E0
1.241999531E1,-2.269703150E0,2.882618904E0,8.820239067E0
1.244499062E1,-1.637633920E0,3.811569214E0,9.998186111E0
1.247000469E1,1.254561663E0,5.334281445E0,8.743624687E0
1.249002031E1,2.394201756E0,6.617573261E0,8.034940720E0
1.251500625E1,2.518700123E0,7.872135162E0,8.274360657E0
1.254000625E1,1.924938202E0,7.278373241E0,8.264783859E0
1.256499844E1,1.867477298E0,5.803544998E0,7.699752808E0
1.258999688E1,1.493981838E0,5.114014626E0,7.536946774E0
1.261499219E1,1.398213744E0,6.110002518E0,7.422025204E0
1.264001094E1,1.455674648E0,7.891288757E0,7.307103634E0
1.266498438E1,1.742978811E0,9.806650162E0,6.876147270E0
1.268998281E1,9.002198577E-1,1.086009884E1,6.713341713E0
1.271000469E1,5.267243981E-1,1.053448772E1,6.665457726E0
1.273500000E1,5.267243981E-1,9.289502144E0,7.058106422E0
1.276000000E1,1.829170108E0,8.293514252E0,6.924031258E0
1.278499375E1,2.106897593E0,8.255207062E0,6.751648903E0
1.280999063E1,2.078166962E0,9.059659004E0,7.086836815E0
1.283498594E1,2.039859772E0,9.366117477E0,6.521805286E0
1.285998281E1,1.513135433E0,8.494627953E0,5.765237808E0
1.288000625E1,1.321599364E0,7.824251175E0,5.468356609E0
1.290500156E1,1.599326730E0,7.010222435E0,6.339846134E0
1.292999844E1,1.446097851E0,7.489062786E0,7.144298077E0
1.295499375E1,1.216254473E0,8.159439087E0,6.933608055E0
1.298002969E1,7.086837292E-1,8.216899872E0,7.469909191E0
1.300498750E1,1.541865945E0,8.149862289E0,7.307103634E0
1.302998438E1,1.982398987E0,7.843404770E0,7.699752808E0
1.305002656E1,1.675941229E0,7.173028469E0,7.900865555E0
1.307500156E1,1.321599364E0,7.125144482E0,8.025363922E0
1.310000000E1,8.523358107E-1,7.517793179E0,8.034940720E0
1.312001875E1,1.273715258E0,7.335834026E0,9.212887764E0
1.314498594E1,1.742978811E0,6.713341713E0,8.513781548E0
1.316998438E1,-1.915361360E-2,5.631162167E0,8.609549522E0
1.319002344E1,-8.236053586E-1,5.410895824E0,8.868123055E0
1.321500156E1,1.532289088E-1,5.334281445E0,8.667010307E0
1.323999844E1,6.799532771E-1,4.817133904E0,8.705317497E0
1.326499375E1,2.489969730E-1,4.625597477E0,9.375694275E0
1.328999063E1,-2.873042040E-2,4.884171486E0,9.040505409E0
1.331498750E1,-7.182605267E-1,3.275267839E0,9.643844604E0
1.333998438E1,-1.158793569E0,2.633621931E0,9.959878922E0
1.336000625E1,-1.235408068E0,2.260126352E0,8.925583839E0
1.338001250E1,-1.350329757E0,2.509123325E0,7.920019150E0
1.340499375E1,-1.407790542E0,1.398213744E0,7.987056732E0
1.342999062E1,-2.509123325E0,-1.723825186E-1,8.446743965E0
1.345498594E1,-2.202665567E0,-8.140285611E-1,8.322244644E0
1.347998281E1,-1.561019540E0,0.000000000E0,1.023760605E1
1.350000625E1,-2.662352324E0,-7.182605267E-1,1.008437729E1
1.352500156E1,-1.149216771E0,-6.416460276E-1,6.895300865E0
1.354999844E1,-9.289502501E-1,7.852981687E-1,7.671022415E0
1.357499375E1,-7.182605267E-1,1.273715258E0,7.948749542E0
1.359999062E1,-1.379060149E0,-8.427590132E-1,7.939172745E0
1.362498750E1,-2.585737944E0,-2.777273953E-1,8.858546257E0
1.364999375E1,-1.340752959E0,3.639186621E-1,7.805097580E0
1.367000625E1,-1.915361404E0,-4.979939461E-1,8.293514252E0
1.369500313E1,-5.171475410E-1,-8.427590132E-1,8.427590370E0
1.372000000E1,-5.937620401E-1,-2.394201756E-1,8.753201485E0
1.374499531E1,-4.309563041E-1,7.086837292E-1,9.136273384E0
1.376999219E1,-1.915361360E-2,1.570596337E0,8.418013573E0
1.379498906E1,-6.895300746E-1,1.924938202E0,9.471462250E0
1.381998594E1,-2.968810201E-1,2.317587137E0,9.682151794E0
1.384498125E1,-1.819593310E-1,3.016694069E0,9.749189377E0
1.386500313E1,6.129156351E-1,3.562572241E0,9.844957352E0
1.389001406E1,8.714894056E-1,4.137180328E0,9.538499832E0
1.391499688E1,9.864110947E-1,4.539406300E0,8.303091049E0
1.394003281E1,4.405331016E-1,5.200206280E0,7.948749542E0
1.396498906E1,1.206677675E0,5.870582581E0,8.283937454E0
1.398998594E1,9.864110947E-1,6.885724068E0,8.274360657E0
1.401498281E1,6.320692301E-1,8.312667847E0,8.226476669E0
1.403500469E1,8.906430602E-1,8.465897560E0,7.383718014E0
1.406000156E1,6.033388376E-1,7.747636795E0,7.393294811E0
1.408499688E1,7.852981687E-1,7.603984833E0,7.536946774E0
1.410999375E1,1.570596337E0,7.393294811E0,8.427590370E0
1.413499062E1,2.528276920E0,8.303091049E0,8.034940720E0
1.415998750E1,2.355894566E0,9.710882187E0,6.876147270E0
1.418498281E1,1.254561663E0,9.605537415E0,5.650316238E0
1.420500625E1,7.661445141E-1,9.394847870E0,4.702212334E0
1.423000313E1,-8.619125932E-2,8.111555099E0,5.832275391E0
1.425001250E1,-3.351882398E-1,7.603984833E0,6.138733387E0
1.427498906E1,5.363011956E-1,7.546523571E0,7.192182064E0
1.429998594E1,1.848323703E0,7.153874874E0,7.958326340E0
1.432498281E1,3.754108191E0,7.498639584E0,7.862558365E0
1.434500469E1,4.031835556E0,7.364564419E0,7.575253963E0
1.437000156E1,3.725377798E0,6.866570473E0,7.096413612E0
1.439499844E1,2.279279947E0,6.598419666E0,7.613561630E0
1.441999531E1,9.959878922E-1,7.077260017E0,8.149862289E0
1.444499062E1,1.101332784E0,7.843404770E0,8.571242332E0
1.446998750E1,1.915361404E0,7.163451672E0,7.019799232E0
1.449498281E1,4.309563041E-1,6.378153324E0,7.240066051E0
1.451500625E1,1.867477298E0,6.569689274E0,8.552088737E0
1.454000312E1,2.643198729E0,6.483498096E0,9.576807022E0
1.456499844E1,2.039859772E0,6.703764915E0,7.680599213E0
1.459004219E1,-9.576806426E-2,7.144298077E0,8.714894295E0
1.461499219E1,-2.873041928E-1,6.244078159E0,9.500192642E0
1.463998906E1,-1.340752989E-1,5.056553841E0,9.509769440E0
1.466498438E1,6.320692301E-1,3.983951569E0,1.002691650E1
1.468998125E1,5.841852427E-1,4.118026733E0,9.117119789E0
1.471003438E1,-5.746083856E-1,4.050989151E0,8.034940720E0
1.473500000E1,-1.350329757E0,3.303998232E0,8.590395927E0
1.475999688E1,-2.968810081E0,2.116474390E0,9.011775017E0
1.478499219E1,-1.762132406E0,1.675941229E0,7.268796444E0
1.480998906E1,-2.499546528E0,1.235408068E0,9.136273384E0
1.483498594E1,-3.284844637E0,1.024718285E0,8.791508675E0
1.485998281E1,-1.905784607E0,-6.703764796E-1,8.504204750E0
1.488000469E1,-8.140285611E-1,-3.447650373E-1,8.015787125E0
1.490500156E1,-7.661445439E-2,-3.830722570E-1,6.933608055E0
1.492999844E1,-6.991068721E-1,-1.819593310E0,8.676587105E0
1.495499375E1,-8.044517636E-1,-1.235408068E0,9.835380554E0
1.497999063E1,5.650315881E-1,-7.182605267E-1,7.431602001E0
1.500498594E1,-9.864110947E-1,-3.351882398E-1,8.350975990E0
1.502998438E1,-7.661445141E-1,-5.841852427E-1,8.580819130E0
1.505000625E1,-1.561019540E0,-1.656787634E0,7.996633530E0
1.507500156E1,-9.385270476E-1,-1.714248419E0,7.287950039E0
1.509999844E1,-8.044517636E-1,-5.746084079E-2,7.690176010E0
1.512499531E1,1.819593310E-1,-1.723825186E-1,7.900865555E0
1.515001719E1,-3.543418646E-1,-9.481038451E-1,9.739612579E0
1.517498750E1,8.810662031E-1,1.551442742E0,9.241618156E0
1.520001250E1,7.757213712E-1,4.242525578E0,8.590395927E0
1.522498125E1,7.852981687E-1,5.774814606E0,7.929595947E0
1.524500312E1,5.554547906E-1,5.420472622E0,8.896853447E0
1.527000000E1,1.273715258E0,4.280832767E0,8.935160637E0
1.529499531E1,1.398213744E0,4.252102375E0,8.724471092E0
1.531999219E1,1.455674648E0,5.947196960E0,7.374141216E0
1.534498906E1,4.118026793E-1,7.019799232E0,8.906430244E0
1.536998594E1,1.733402014E0,7.058106422E0,8.647856712E0
1.539498125E1,2.729389906E0,6.866570473E0,8.877699852E0
1.541500469E1,2.547430515E0,7.613561630E0,7.680599213E0
1.544000000E1,2.250549555E0,8.446743965E0,7.431602001E0
1.546499688E1,2.308010340E0,8.628703117E0,7.307103634E0
1.548999375E1,2.489969730E-1,8.590395927E0,8.580819130E0
1.550999688E1,2.873041928E-1,8.925583839E0,8.504204750E0
1.553498125E1,1.685518026E0,9.088389397E0,6.416460514E0
1.555500312E1,2.078166962E0,8.082824707E0,5.353435040E0
1.558000000E1,5.363011956E-1,7.422025204E0,5.228936672E0
1.560499688E1,1.388636947E0,7.077260017E0,6.215347767E0
1.562999375E1,1.369483352E0,7.278373241E0,6.761225700E0
1.565498906E1,2.413355350E0,8.619126320E0,6.876147270E0
1.567998594E1,2.145204782E0,7.881711960E0,6.426037312E0
1.570498281E1,1.752555609E0,7.872135162E0,6.454767704E0
1.572500469E1,2.212242365E0,8.667010307E0,7.412448406E0
1.575001719E1,2.882618904E0,9.892841339E0,6.713341713E0
1.577499688E1,2.020706177E0,8.954314232E0,7.163451672E0
1.579999531E1,1.063025594E0,6.684611320E0,7.287950039E0
1.582499063E1,1.120486379E0,5.583278179E0,7.862558365E0
1.585001250E1,2.183511972E0,5.803544998E0,8.820239067E0
1.587498281E1,2.039859772E0,6.751648903E0,8.609549522E0
1.589500625E1,1.982398987E0,6.952761650E0,7.939172745E0
1.592000313E1,1.235408068E0,6.311115742E0,8.734047890E0
1.594499844E1,2.681505978E-1,6.540958881E0,9.289502144E0
1.596999531E1,6.607996821E-1,6.493074894E0,9.528923035E0
1.599002656E1,7.182605267E-1,7.029376030E0,8.312667847E0
1.601498125E1,-1.264138460E0,6.454767704E0,9.203310966E0
1.603500469E1,-5.746083856E-1,4.012681961E0,9.557653427E0
1.606000156E1,-4.405331016E-1,1.273715258E0,8.360552788E0
1.608499688E1,-4.788403511E-1,2.671929121E0,8.743624687E0
1.610999375E1,-8.236053586E-1,2.298433542E0,8.255207062E0
1.613499062E1,-1.331176162E0,9.193734527E-1,9.155426979E0
1.615998750E1,-2.269703150E0,4.501099288E-1,8.389283180E0
1.618498281E1,-1.446097851E0,7.278373241E-1,7.881711960E0
1.620500625E1,-1.714248419E0,6.033388376E-1,7.182605267E0
1.623000312E1,-1.905784607E0,-2.106897533E-1,8.101978302E0
1.625002344E1,-2.365471363E0,-9.481038451E-1,9.107542992E0
1.627498906E1,-1.120486379E0,-1.063025594E0,7.393294811E0
1.629998906E1,-1.493981838E0,5.650315881E-1,7.326257229E0
1.632498750E1,-2.164358377E0,3.639186621E-1,8.101978302E0
1.634500469E1,-8.714894056E-1,-3.447650373E-1,7.910442352E0
1.637000156E1,-1.436521053E0,-1.139639974E0,7.977479935E0
1.639499688E1,-1.656787634E0,4.788403213E-2,7.824251175E0
1.641999531E1,-6.991068721E-1,7.182605267E-1,7.671022415E0
1.644499063E1,-4.884171486E-1,6.991068721E-1,7.910442352E0
1.646998750E1,-1.120486379E0,1.273715258E0,9.423578262E0
1.649498281E1,6.799532771E-1,1.177947283E0,9.404424667E0
1.651500469E1,8.523358107E-1,2.518700123E0,9.327810287E0
1.654000313E1,3.256114423E-1,4.874594688E0,9.969455719E0
1.656499844E1,5.363011956E-1,5.880159378E0,1.017056847E1
1.659003438E1,1.149216771E0,4.865017891E0,8.159439087E0
1.661499062E1,-7.757213712E-1,4.137180328E0,8.073247910E0
1.663998906E1,-1.034295082E0,4.529829502E0,8.226476669E0
1.666498438E1,1.053448796E0,5.343858242E0,7.881711960E0
1.669001250E1,2.135627985E0,5.985504150E0,7.307103634E0
1.671497813E1,2.930502892E0,7.671022415E0,6.512228489E0
1.673500000E1,2.604891539E0,7.661445618E0,6.196194172E0
1.676001094E1,8.236053586E-1,7.144298077E0,8.532935143E0
1.678499219E1,1.407790542E0,7.929595947E0,8.762778282E0
1.680998906E1,2.068590164E0,8.992621422E0,7.824251175E0
1.683498594E1,1.273715258E0,8.944737434E0,7.278373241E0
1.685998281E1,1.762132406E0,8.169015884E0,7.489062786E0
1.688000469E1,2.959233284E0,8.054094315E0,8.264783859E0
1.690002813E1,3.189076662E0,8.303091049E0,8.121131897E0
1.692499219E1,2.087743998E0,9.011775017E0,5.899312973E0
1.694999844E1,2.116474390E0,8.044517517E0,6.761225700E0
1.697498438E1,2.039859772E0,8.111555099E0,6.962338448E0
1.699999375E1,2.643198729E0,7.766790390E0,6.962338448E0
1.702000313E1,2.049436569E0,7.096413612E0,6.540958881E0
1.704500000E1,1.168370485E0,7.431602001E0,6.062118530E0
1.706999688E1,1.168370485E0,7.077260017E0,7.469909191E0
1.709499219E1,1.982398987E0,7.345410824E0,8.054094315E0
1.711998906E1,2.336740971E0,7.489062786E0,7.642292023E0
1.714498594E1,1.618480325E0,6.636727333E0,7.881711960E0
1.716998281E1,5.267243981E-1,6.406883717E0,8.829815865E0
1.719000469E1,8.044517636E-1,6.550535679E0,9.682151794E0
1.721002500E1,9.097966552E-1,6.627150536E0,9.414001465E0
1.723499219E1,7.757213712E-1,6.646304131E0,8.398859978E0
1.725998906E1,7.565677166E-1,6.665457726E0,8.954314232E0
1.728498438E1,3.160346150E-1,5.650316238E0,9.021351814E0
1.730998125E1,-8.906430602E-1,3.964797974E0,9.346963882E0
1.733000312E1,-7.278373241E-1,3.629609823E0,9.461885452E0
1.735500000E1,-1.149216771E0,3.323152065E0,8.887276649E0
1.737999688E1,-2.298433632E-1,3.055001259E0,8.781931877E0
1.740499375E1,8.619125932E-2,3.102885485E0,8.283937454E0
1.742998906E1,6.703764945E-2,2.815581083E0,8.092401505E0
1.745498594E1,-1.043871999E0,1.838746905E0,8.121131897E0
1.747998281E1,-2.901772499E0,-1.158793569E0,8.236053467E0
1.750001250E1,-3.198653460E0,-1.465251446E0,8.475474358E0
1.752500156E1,-2.403778553E0,1.819593310E-1,6.981492043E0
1.754999844E1,-2.978386879E0,-2.011129409E-1,6.406883717E0
1.757499375E1,-2.700659513E0,-1.369483352E0,6.818686485E0
1.759999062E1,-2.355894566E0,-1.618480325E0,7.862558365E0
1.762498594E1,-4.501099288E-1,-7.852981687E-1,8.839392662E0
1.765000312E1,-7.182605267E-1,-8.619125932E-2,8.599972725E0
1.767000625E1,-9.097966552E-1,4.118026793E-1,8.590395927E0
1.769500156E1,-1.053448796E0,1.723825186E-1,6.981492043E0
1.771999844E1,-1.675941229E0,3.256114423E-1,8.283937454E0
1.774499531E1,-1.177947283E0,1.647210717E0,8.906430244E0
1.776999219E1,-5.650315881E-1,1.944091797E0,9.931148529E0
1.779498750E1,4.979939461E-1,2.547430515E0,9.356540680E0
1.781998438E1,-5.746084079E-2,2.221819162E0,9.787496567E0
1.784498125E1,1.407790542E0,1.714248419E0,8.695740700E0
1.786500312E1,9.864110947E-1,2.432508945E0,8.418013573E0
1.789000000E1,-8.619125932E-2,4.414907932E0,7.240066051E0
1.791499531E1,-3.543418646E-1,5.439626217E0,8.695740700E0
1.793999375E1,8.906430602E-1,5.956773758E0,8.379706383E0
1.795999688E1,2.011129379E0,6.569689274E0,8.350975990E0
1.798000625E1,2.126051188E0,7.680599213E0,7.422025204E0
1.800001562E1,2.834734917E0,7.958326340E0,7.278373241E0
1.802499375E1,2.547430515E0,7.393294811E0,6.828263283E0
1.804999062E1,2.288856745E0,5.851428986E0,8.226476669E0
1.807498594E1,8.331822157E-1,7.287950039E0,9.366117477E0
1.809998281E1,5.554547906E-1,1.008437729E1,8.006210327E0
1.812000469E1,6.033388376E-1,1.105163479E1,7.690176010E0
1.814500156E1,2.288856745E0,1.016099167E1,7.038952827E0
1.816999844E1,2.240972757E0,8.044517517E0,6.770802498E0
1.819499375E1,1.312022567E0,5.861005783E0,6.493074894E0
1.821999062E1,2.126051188E0,6.445190907E0,6.885724068E0
1.824498594E1,2.949656487E0,9.136273384E0,6.703764915E0
1.826998438E1,2.240972757E0,8.628703117E0,6.004657745E0
1.829000625E1,1.292868972E0,6.828263283E0,7.144298077E0
1.831500156E1,1.810016513E0,7.307103634E0,8.350975990E0
1.833999844E1,2.882618904E0,8.398859978E0,8.389283180E0
1.836499531E1,2.059013367E0,7.680599213E0,6.732495308E0
1.838999219E1,2.489969730E-1,7.335834026E0,6.952761650E0
1.841498750E1,1.254561663E0,7.287950039E0,8.408436775E0
1.843998438E1,1.474828243E0,6.876147270E0,8.686163902E0
1.846498125E1,1.244984865E0,7.402871609E0,6.837840080E0
1.848500313E1,1.139639974E0,6.828263283E0,6.502651691E0
1.851000000E1,8.714894056E-1,5.554547787E0,9.567230225E0
1.853499688E1,-7.469909191E-1,5.679046631E0,1.054406452E1
1.855999375E1,-1.551442742E0,6.042964935E0,9.825803757E0
1.858498906E1,-1.312022567E0,5.506663799E0,1.074517727E1
1.860998594E1,5.937620401E-1,4.031835556E0,9.509769440E0
1.863498281E1,1.005564690E0,2.901772499E0,9.011775017E0
1.865500469E1,6.991068721E-1,3.112462282E0,8.312667847E0
1.868000156E1,3.639186621E-1,1.857900500E0,7.565677166E0
1.870499688E1,-9.385270476E-1,4.118026793E-1,8.025363922E0
1.872999375E1,-2.183511972E0,-3.830722719E-2,8.322244644E0
1.875499062E1,-2.279279947E0,-3.830722570E-1,7.967903137E0
1.877998750E1,-2.394201756E0,-2.777273953E-1,7.833827972E0
1.880000781E1,-2.260126352E0,8.619125932E-2,7.058106422E0
1.882500625E1,-3.189076662E0,-1.532289088E-1,8.025363922E0
1.885000312E1,-4.357447147E0,-7.374141216E-1,8.532935143E0
1.887499844E1,-3.064578056E0,-9.576806799E-3,8.724471092E0
1.889999531E1,-1.771709204E0,2.873042040E-2,7.977479935E0
1.892499062E1,-1.292868972E0,6.320692301E-1,7.048529625E0
1.894998750E1,-1.723825216E0,-8.714894056E-1,7.709329605E0
1.897498438E1,-1.350329757E0,-1.177947283E0,8.724471092E0
1.899998125E1,-9.193734527E-1,-4.788403511E-1,8.667010307E0
1.902000313E1,-4.979939461E-1,4.118026793E-1,8.169015884E0
1.904500000E1,-4.213795066E-1,1.235408068E0,7.690176010E0
1.906999688E1,-6.991068721E-1,1.886630893E0,8.312667847E0
1.909499219E1,-4.118026793E-1,4.194641590E0,8.743624687E0
1.911998906E1,-1.628057212E-1,5.046977043E0,9.710882187E0
1.914001562E1,1.149216816E-1,4.290409565E0,1.083136845E1
1.916497656E1,1.541865945E0,3.093308687E0,9.251194954E0
1.918499844E1,9.289502501E-1,3.639186621E0,7.852981567E0
1.920999531E1,0.000000000E0,6.234501362E0,6.502651691E0
1.923499063E1,4.309563041E-1,7.460332394E0,7.364564419E0
1.925998906E1,1.924938202E0,7.489062786E0,8.494627953E0
1.928498281E1,3.083731890E0,7.259219646E0,8.523358345E0
1.930998125E1,2.691082716E0,7.594407558E0,7.584830761E0
1.933000312E1,2.451662540E0,7.872135162E0,6.713341713E0
1.935001562E1,1.273715258E0,8.762778282E0,6.799532890E0
1.937499063E1,1.350329757E0,9.758766174E0,8.762778282E0
1.939998594E1,1.608903527E0,9.461885452E0,1.006522369E1
1.942002500E1,1.465251446E0,8.188169479E0,7.613561630E0
1.944500469E1,1.005564690E0,7.489062786E0,5.104437828E0
1.947000312E1,1.656787634E0,7.307103634E0,5.612008572E0
1.949499844E1,1.005564690E0,7.115567684E0,6.598419666E0
1.951999531E1,1.589749932E0,7.747636795E0,7.575253963E0
1.954499062E1,2.815581083E0,7.584830761E0,7.852981567E0
1.956998750E1,2.595314741E0,7.814674377E0,7.814674377E0
1.959498438E1,3.026270866E0,8.226476669E0,7.757213593E0
1.961998125E1,2.193088770E0,7.795520782E0,8.015787125E0
1.964000469E1,1.714248419E0,6.924031258E0,8.322244644E0
1.966500000E1,1.446097851E0,6.493074894E0,8.753201485E0
1.968999688E1,1.177947283E0,7.000645638E0,7.680599213E0
1.971499219E1,4.118026793E-1,6.799532890E0,7.536946774E0
1.973998906E1,3.543418646E-1,6.445190907E0,7.163451672E0
1.976498594E1,1.742978811E0,5.621585369E0,7.977479935E0
1.978998281E1,8.714894056E-1,5.746084213E0,9.356540680E0
1.981000469E1,-4.788403213E-2,5.592854977E0,9.624691010E0
1.983500156E1,6.512228847E-1,5.573701382E0,1.047702694E1
1.985999844E1,9.576807022E-1,6.052541733E0,9.950302124E0
1.988499375E1,6.512228847E-1,4.884171486E0,1.052491093E1
1.990998906E1,-7.661445141E-1,4.299986362E0,8.140285492E0
1.993498594E1,-1.762132406E0,2.604891539E0,8.341399193E0
1.995998438E1,-1.637633920E0,9.768342972E-1,7.805097580E0
1.998001875E1,-2.030282974E0,-1.216254473E0,8.801085472E0
2.000500156E1,-1.723825216E0,-1.340752989E-1,8.331821442E0
2.002999844E1,-1.465251446E0,-6.320692301E-1,7.651868820E0
2.005000312E1,-6.607996821E-1,-1.244984865E0,7.096413612E0
2.007498594E1,-3.064578176E-1,-2.202665567E0,5.497087002E0
2.009998281E1,-1.225831270E0,-2.164358377E0,7.728483200E0
2.012000938E1,-2.164358377E0,-1.685518026E0,8.236053467E0
2.014500156E1,-1.810016513E0,1.915361285E-1,8.082824707E0
2.016999844E1,-2.518700123E0,1.130063176E0,8.188169479E0
2.019499375E1,-1.637633920E0,6.703764945E-2,8.274360657E0
2.021999062E1,-1.867477298E0,-9.576806799E-3,1.006522369E1
2.024498594E1,-3.160346150E-1,9.576806426E-2,8.341399193E0
2.026998438E1,-1.130063176E0,-1.436520964E-1,8.906430244E0
2.029000625E1,-8.523358107E-1,1.034295082E0,8.504204750E0
2.031500156E1,5.937620401E-1,1.637633920E0,8.140285492E0
2.033999844E1,1.015141487E0,2.049436569E0,8.599972725E0
2.036499531E1,7.469909191E-1,2.470816135E0,7.422025204E0
2.038999219E1,2.394201756E-1,2.806004286E0,7.469909191E0
2.041498750E1,2.489969730E-1,3.418920040E0,9.634267807E0
2.043998438E1,1.982398987E0,4.568136692E0,9.289502144E0
2.046498125E1,1.953668594E0,6.234501362E0,7.977479935E0
2.048500313E1,1.455674648E0,7.316680431E0,7.441178799E0
2.051004531E1,1.091755986E0,7.785943985E0,8.504204750E0
2.053499688E1,1.771709204E0,6.751648903E0,8.801085472E0
2.055999375E1,2.317587137E0,7.077260017E0,9.327810287E0
2.058498906E1,1.264138460E0,8.044517517E0,7.852981567E0
2.060998594E1,1.101332784E0,7.584830761E0,7.862558365E0
2.063498125E1,1.924938202E0,8.130708694E0,8.609549522E0
2.065500469E1,3.074155092E0,9.203310966E0,8.580819130E0
2.068004844E1,2.442085743E0,9.758766174E0,8.312667847E0
2.070499688E1,2.671929121E0,9.806650162E0,6.933608055E0
2.072999375E1,2.068590164E0,8.532935143E0,6.445190907E0
2.075000781E1,1.110909581E0,7.517793179E0,5.870582581E0
2.077498125E1,2.585737705E-1,7.125144482E0,4.903325081E0
2.079500312E1,1.819593310E-1,6.368576527E0,5.544970989E0
2.082000000E1,1.225831270E0,5.583278179E0,7.163451672E0
2.084499531E1,2.767697096E0,5.755661011E0,8.015787125E0
2.086999375E1,3.217807055E0,6.770802498E0,8.724471092E0
2.089498906E1,4.118026733E0,7.479485989E0,8.772355080E0
2.091998594E1,4.223371983E0,7.240066051E0,9.452308655E0
2.094498125E1,3.591302633E0,7.469909191E0,9.184157372E0
2.096500469E1,1.723825216E0,8.283937454E0,8.552088737E0
2.099000156E1,1.149216816E-1,9.691728592E0,7.422025204E0
2.101001094E1,-8.619125932E-2,9.011775017E0,6.493074894E0
2.103498750E1,-1.120486379E0,7.220912457E0,7.096413612E0
2.105998594E1,-1.924938202E0,5.209783077E0,8.044517517E0
2.108498125E1,-1.388636947E0,3.552995205E0,7.603984833E0
2.110500312E1,-8.044517636E-1,2.911349297E0,8.255207062E0
2.113000000E1,-6.895300746E-1,3.744531393E0,9.394847870E0
2.115499688E1,6.512228847E-1,3.667917013E0,1.044829655E1
2.117999375E1,1.628057212E-1,4.596867085E0,1.108036518E1
2.120498906E1,4.118026793E-1,4.376600742E0,1.184650993E1
2.122998594E1,6.703764945E-2,7.374141216E-1,1.032379818E1
2.125498125E1,-1.235408068E0,-1.474828243E0,9.021351814E0
2.127500469E1,-2.375048161E0,-1.829170108E0,8.408436775E0
2.130000469E1,-1.551442742E0,-1.819593310E-1,5.238513470E0
2.132499688E1,-1.053448796E0,-1.206677675E0,3.964797974E0
2.134999375E1,-2.001552582E0,-2.087743998E0,4.922478676E0
2.137498906E1,-1.829170108E0,-2.930502892E0,7.431602001E0
2.139998906E1,-1.034295082E0,-1.905784607E0,7.891288757E0
2.142498281E1,-2.087743998E0,-9.481038451E-1,9.806650162E0
2.144500469E1,-1.666364431E0,3.639186621E-1,1.058237171E1
2.147000156E1,-9.481038451E-1,8.427590132E-1,1.062067890E1
2.149499844E1,-3.639186621E-1,1.513135433E0,1.065898609E1
2.151999688E1,-4.788403511E-1,3.179499865E0,9.682151794E0
2.154499062E1,-8.619126081E-1,4.079719543E0,7.594407558E0
2.156998750E1,-7.948749661E-1,2.729389906E0,6.177040577E0
2.159002031E1,-1.762132406E0,1.436521053E0,7.297526836E0
2.161003281E1,-2.968810201E-1,1.723825186E-1,6.454767704E0
2.163499688E1,6.607996821E-1,-5.650315881E-1,6.991068840E0
2.165999375E1,1.637633920E0,-5.363011956E-1,8.887276649E0
2.168499062E1,1.896207690E0,1.216254473E0,1.019929886E1
2.171002031E1,2.882618904E0,5.726930618E0,8.858546257E0
2.173498281E1,2.154781580E0,1.104205799E1,9.260771751E0
2.175500469E1,1.053448796E0,1.328303146E1,9.979032516E0
2.178000312E1,1.493981838E0,1.008437729E1,8.159439087E0
2.180499844E1,5.841852427E-1,5.401319027E0,7.393294811E0
2.182999531E1,-6.607996821E-1,3.112462282E0,6.904877663E0
2.185499063E1,8.427590132E-1,3.696647406E0,6.502651691E0
2.187998750E1,2.643198729E0,6.780379295E0,7.048529625E0
2.190498438E1,3.313575268E0,1.047702694E1,7.623138428E0
2.192998125E1,3.438073635E0,1.159751320E1,8.350975990E0
2.195000313E1,2.346317768E0,1.041956615E1,7.038952827E0
2.197500000E1,9.768342972E-1,7.967903137E0,7.958326340E0
2.200004062E1,2.097320795E0,7.785943985E0,8.896853447E0
2.202499219E1,2.652775526E0,8.762778282E0,8.494627953E0
2.205000156E1,2.738966703E0,8.552088737E0,6.924031258E0
2.207498438E1,2.652775526E0,7.335834026E0,6.531382084E0
2.209998125E1,2.604891539E0,6.311115742E0,5.736507416E0
2.212000469E1,1.168370485E0,5.908889771E0,5.669469833E0
2.214500000E1,5.554547906E-1,6.320692539E0,6.291962147E0
2.216999688E1,7.948749661E-1,7.479485989E0,8.236053467E0
2.219499375E1,1.369483352E0,8.245630264E0,8.887276649E0
2.221999531E1,1.091755986E0,7.498639584E0,8.571242332E0
2.224498594E1,8.427590132E-1,6.502651691E0,8.475474358E0
2.226998281E1,1.072602391E0,5.372588634E0,1.031422138E1
2.229000469E1,1.580173135E0,5.918466568E0,9.145850182E0
2.231500156E1,6.703764796E-1,5.746084213E0,9.040505409E0
2.233999844E1,2.873042040E-2,5.372588634E0,8.839392662E0
2.236499375E1,3.447650373E-1,5.066130638E0,7.862558365E0
2.238999063E1,2.394201756E-1,3.380612850E0,8.686163902E0
2.241498750E1,-8.331822157E-1,2.987963676E0,9.165003777E0
2.243998438E1,-1.034295082E0,2.863465309E0,9.720458984E0
2.246000625E1,-1.522712231E0,2.978386879E0,9.643844604E0
2.248500313E1,-1.034295082E0,2.461239338E0,8.868123055E0
2.251000156E1,-1.503558636E0,8.427590132E-1,8.245630264E0
2.253499531E1,-3.313575268E0,9.576806799E-3,9.423578262E0
2.255999375E1,-1.972822189E0,3.734954596E-1,7.852981567E0
2.258498750E1,-5.937620401E-1,-4.118026793E-1,7.335834026E0
2.260999844E1,-6.033388376E-1,-1.388636947E0,6.866570473E0
2.263498125E1,-1.503558636E0,-2.078166962E0,7.134721279E0
2.265500312E1,-1.465251446E0,-9.768342972E-1,6.943184853E0
2.268000156E1,-2.509123325E0,-5.841852427E-1,8.513781548E0
2.270001563E1,-1.541865945E0,-6.895300746E-1,8.762778282E0
2.272498750E1,-1.244984865E0,-8.523358107E-1,8.188169479E0
2.274998438E1,-1.637633920E0,1.915361285E-1,9.414001465E0
2.277000781E1,-7.948749661E-1,9.193734527E-1,9.040505409E0
2.279500312E1,0.000000000E0,3.639186621E-1,8.092401505E0
2.282000000E1,-8.236053586E-1,4.788403511E-1,8.944737434E0
2.284499531E1,-7.661445141E-1,1.110909581E0,9.911994934E0
2.286999219E1,5.650315881E-1,2.691082716E0,8.609549522E0
2.289498750E1,7.374141216E-1,4.338293552E0,7.785943985E0
2.291998438E1,5.937620401E-1,5.947196960E0,8.734047890E0
2.294498125E1,1.321599364E0,5.889736176E0,7.651868820E0
2.296500313E1,1.072602391E0,5.516240597E0,7.603984833E0
2.299000156E1,1.110909581E0,4.903325081E0,7.967903137E0
2.301499688E1,1.474828243E0,4.328716755E0,8.504204750E0
2.303999375E1,1.072602391E0,5.410895824E0,7.498639584E0
2.306498906E1,1.063025594E0,7.450755596E0,8.207323074E0
2.308998594E1,2.403778553E0,9.193734169E0,8.571242332E0
2.311498281E1,3.610456228E0,9.461885452E0,7.182605267E0
2.313500469E1,2.116474390E0,9.088389397E0,6.751648903E0
2.316000156E1,9.289502501E-1,8.619126320E0,7.153874874E0
2.318499844E1,2.346317768E0,8.848969460E0,8.121131897E0
2.321002500E1,1.963245392E0,9.174580574E0,7.278373241E0
2.323499063E1,7.374141216E-1,9.155426979E0,5.813121796E0
2.325998750E1,1.704671621E0,8.073247910E0,6.895300865E0
2.328498438E1,2.327163935E0,7.354987621E0,7.833827972E0
2.330500625E1,2.614468336E0,7.307103634E0,7.086836815E0
2.333002969E1,2.030282974E0,7.105990410E0,5.784391403E0
2.335499844E1,1.771709204E0,7.105990410E0,6.416460514E0
2.337999531E1,2.509123325E0,6.780379295E0,8.379706383E0
2.340499219E1,2.288856745E0,8.111555099E0,8.504204750E0
2.342999219E1,2.126051188E0,8.504204750E0,7.527369976E0
2.345498438E1,2.911349297E0,6.924031258E0,7.067683220E0
2.347998125E1,2.202665567E0,6.445190907E0,8.350975990E0
2.350000313E1,2.106897593E0,7.019799232E0,8.983044624E0
2.352500000E1,2.011129379E0,7.259219646E0,8.705317497E0
2.355002188E1,1.474828243E0,6.809109688E0,7.173028469E0
2.357499219E1,1.302445769E0,5.861005783E0,7.536946774E0
2.359999375E1,1.177947283E0,5.305551052E0,8.705317497E0
2.362498594E1,1.149216816E-1,5.363011837E0,9.097966194E0
2.364998750E1,-6.703764945E-2,5.161899090E0,9.528923035E0
2.367000469E1,-2.106897533E-1,4.472368717E0,9.232041359E0
2.369500156E1,-5.363011956E-1,2.767697096E0,1.001733971E1
2.371999844E1,-4.884171486E-1,1.886630893E0,9.193734169E0
2.374499375E1,-1.005564690E0,1.762132406E0,8.848969460E0
2.376999063E1,-1.991975784E0,1.877054095E0,8.571242332E0
2.379498594E1,-2.509123325E0,3.256114423E-1,8.446743965E0
2.381998438E1,-2.691082716E0,-7.469909191E-1,8.140285492E0
2.384000625E1,-1.714248419E0,-5.267243981E-1,8.015787125E0
2.386500156E1,5.746084079E-2,-4.884171486E-1,7.690176010E0
2.388999844E1,5.746084079E-2,-1.110909581E0,8.532935143E0
2.391002344E1,-2.011129409E-1,-1.675941229E0,8.781931877E0
2.393498594E1,-7.469909191E-1,-1.350329757E0,9.500192642E0
2.395998281E1,-6.799532771E-1,-5.554547906E-1,8.178592682E0
2.398000469E1,-5.937620401E-1,1.149216816E-1,7.019799232E0
2.400500156E1,-1.158793569E0,9.576806799E-3,6.952761650E0
2.402999844E1,-1.197100878E0,-4.022258818E-1,6.761225700E0
2.405499375E1,-2.288856745E0,-7.661445439E-2,7.718906403E0
2.407999062E1,-1.312022567E0,6.991068721E-1,8.628703117E0
2.410498594E1,7.469909191E-1,1.053448796E0,8.705317497E0
2.412998438E1,1.264138460E0,2.097320795E0,1.041956615E1
2.415000781E1,2.087743998E0,3.246537447E0,9.423578262E0
2.417500156E1,2.183511972E0,4.951209068E0,9.165003777E0
2.420000625E1,1.197100878E0,5.573701382E0,9.825803757E0
2.422499531E1,2.394201756E-1,5.018246651E0,8.848969460E0
2.425000469E1,-3.447650373E-1,4.750096321E0,9.308655739E0
2.427498750E1,9.576807022E-1,5.238513470E0,7.929595947E0
2.429998438E1,2.183511972E0,5.717353821E0,7.699752808E0
2.431999531E1,2.365471363E0,7.029376030E0,6.617573261E0
2.433999844E1,1.877054095E0,7.785943985E0,7.067683220E0
2.436499375E1,9.097966552E-1,8.743624687E0,7.747636795E0
2.438999375E1,3.926490843E-1,8.647856712E0,8.073247910E0
2.441002656E1,6.799532771E-1,7.958326340E0,8.839392662E0
2.443497812E1,1.350329757E0,8.475474358E0,8.283937454E0
2.445500000E1,2.097320795E0,9.059659004E0,8.073247910E0
2.447999688E1,2.250549555E0,8.801085472E0,6.924031258E0
2.450499375E1,2.126051188E0,7.105990410E0,6.062118530E0
2.452999375E1,1.465251446E0,6.617573261E0,5.688623428E0
2.455498594E1,1.379060149E0,7.843404770E0,6.904877663E0
2.457998281E1,8.523358107E-1,8.676587105E0,7.058106422E0
2.460000469E1,6.607996821E-1,8.580819130E0,7.287950039E0
2.462500156E1,1.024718285E0,6.703764915E0,7.402871609E0
2.464999844E1,1.350329757E0,5.995080948E0,5.861005783E0
2.467002656E1,2.212242365E0,6.837840080E0,6.904877663E0
2.469498438E1,3.418920040E0,7.785943985E0,7.872135162E0
2.471998281E1,2.595314741E0,7.431602001E0,8.140285492E0
2.474000938E1,1.580173135E0,6.694188118E0,9.040505409E0
2.476500000E1,4.979939461E-1,6.311115742E0,9.366117477E0
2.478999688E1,6.416460276E-1,6.646304131E0,8.082824707E0
2.481499375E1,1.369483352E0,7.230489254E0,8.207323074E0
2.483999063E1,2.011129379E0,7.096413612E0,9.136273384E0
2.486498594E1,1.848323703E0,6.004657745E0,9.682151794E0
2.488998281E1,1.053448796E0,5.707777023E0,9.203310966E0
2.491002344E1,-5.650315881E-1,5.698200226E0,8.485051155E0
2.493500156E1,-1.580173135E0,5.181052685E0,8.781931877E0
2.495999844E1,-1.503558636E0,4.098873138E0,1.002691650E1
2.498499375E1,-8.619126081E-1,3.399766445E0,8.791508675E0
2.500999062E1,-3.256114423E-1,1.733402014E0,7.594407558E0
2.503498750E1,-5.554547906E-1,6.224924326E-1,8.532935143E0
2.505998438E1,-1.379060149E0,-1.436520964E-1,9.557653427E0
2.508000625E1,-2.126051188E0,7.757213712E-1,9.212887764E0
2.510500156E1,-1.072602391E0,5.937620401E-1,8.427590370E0
2.513000000E1,-9.672574997E-1,2.011129409E-1,6.435614109E0
2.515499531E1,-1.532289088E-1,2.681505978E-1,9.222464561E0
2.517999219E1,-3.639186621E-1,-1.532289088E-1,8.264783859E0
2.520001094E1,-6.129156351E-1,-3.543418646E-1,6.991068840E0
2.522497969E1,-2.432508945E0,-9.385270476E-1,8.695740700E0
2.524500156E1,-1.474828243E0,-1.398213744E0,9.107542992E0
2.526999844E1,-1.513135433E0,-8.523358107E-1,9.174580574E0
2.529499375E1,-7.086837292E-1,1.110909581E0,8.628703117E0
2.531999063E1,1.053448766E-1,1.321599364E0,7.422025204E0
2.534498750E1,-7.852981687E-1,9.768342972E-1,7.326257229E0
2.536998438E1,-1.312022567E0,9.576807022E-1,9.011775017E0
2.539000625E1,-1.474828243E0,1.388636947E0,9.184157372E0
2.541003906E1,-4.979939461E-1,1.139639974E0,8.916007042E0
2.543499375E1,-1.532289088E-1,2.039859772E0,7.268796444E0
2.545999063E1,7.661445439E-2,3.610456228E0,9.069235802E0
2.548498594E1,9.193734527E-1,4.299986362E0,9.366117477E0
2.550998281E1,1.522712231E0,4.137180328E0,7.766790390E0
2.553000625E1,7.182605267E-1,4.683058739E0,8.772355080E0
2.555500156E1,1.225831270E0,5.631162167E0,9.337387085E0
2.558000000E1,2.135627985E0,6.598419666E0,8.513781548E0
2.560499531E1,1.924938202E0,6.943184853E0,8.513781548E0
2.562999219E1,2.212242365E0,6.713341713E0,8.255207062E0
2.565498750E1,2.470816135E0,6.110002518E0,7.805097580E0
2.567998438E1,1.991975784E0,5.851428986E0,7.623138428E0
2.570000625E1,1.474828243E0,7.125144482E0,8.638279915E0
2.572500312E1,1.972822189E0,9.691728592E0,7.987056732E0
2.575000000E1,1.110909581E0,1.017056847E1,6.885724068E0
2.577499531E1,6.799532771E-1,7.345410824E0,5.640739441E0
2.579999219E1,1.187524080E0,5.995080948E0,6.263231754E0
2.582498906E1,1.915361404E0,7.967903137E0,6.311115742E0
2.584998594E1,2.509123325E0,9.337387085E0,7.345410824E0
2.587498125E1,3.294421434E0,8.781931877E0,7.814674377E0
2.589500313E1,2.853888512E0,7.766790390E0,7.699752808E0
2.592000000E1,3.064578056E0,7.852981567E0,7.115567684E0
2.594499688E1,2.049436569E0,7.852981567E0,7.508216381E0
2.596999375E1,1.781286120E0,7.498639584E0,7.661445618E0
2.599498906E1,1.340752959E0,7.201758862E0,7.900865555E0
2.601998750E1,1.838746905E0,6.818686485E0,6.895300865E0
2.603999688E1,1.781286120E0,6.052541733E0,5.870582581E0
2.606000000E1,1.877054095E0,5.181052685E0,6.895300865E0
2.608499531E1,1.953668594E0,5.458779812E0,9.979032516E0
2.611002031E1,-5.650315881E-1,7.153874874E0,9.730035782E0
2.613002344E1,-2.777273953E-1,7.747636795E0,9.490615845E0
2.615497969E1,1.455674648E0,7.556100368E0,9.471462250E0
2.617500156E1,2.470816135E0,6.684611320E0,9.653421402E0
2.620000156E1,1.455674648E0,4.845864296E0,1.014183807E1
2.622499531E1,1.216254473E0,3.189076662E0,8.954314232E0
2.624999219E1,7.948749661E-1,2.853888512E0,8.896853447E0
2.627498750E1,6.607996821E-1,2.844311714E0,8.427590370E0
2.629998438E1,-1.819593310E-1,2.624045134E0,9.222464561E0
2.632498125E1,-5.075707436E-1,2.231395960E0,7.785943985E0
2.634500312E1,-1.063025594E0,1.187524080E0,8.839392662E0
2.637000000E1,-1.867477298E0,1.340752989E-1,9.749189377E0
2.639499531E1,-1.934514999E0,-1.493981838E0,7.785943985E0
2.642001562E1,-2.806004286E0,-1.139639974E0,8.590395927E0
2.644498906E1,-4.596867263E-1,-1.647210717E0,1.004607010E1
2.646998594E1,1.800439715E0,-6.512228847E-1,9.366117477E0
2.649498125E1,8.714894056E-1,-2.011129409E-1,7.967903137E0
2.651500313E1,-3.351882398E-1,-9.289502501E-1,8.839392662E0
2.654000000E1,-9.864110947E-1,-4.596867263E-1,6.837840080E0
2.656000625E1,-1.398213744E0,-9.481038451E-1,6.253654957E0
2.658498750E1,-2.011129379E0,-1.264138460E0,6.617573261E0
2.661003125E1,-1.733402014E0,-1.264138460E0,7.603984833E0
2.663498125E1,-1.580173135E0,-1.417367458E0,8.896853447E0
2.665500312E1,-1.120486379E0,-1.436520964E-1,9.567230225E0
2.668000000E1,-1.628057212E-1,1.647210717E0,9.088389397E0
2.670001563E1,2.298433632E-1,3.150769472E0,9.251194954E0
2.672498594E1,6.416460276E-1,4.414907932E0,8.839392662E0
2.675000781E1,1.264138460E0,4.118026733E0,7.613561630E0
2.677497969E1,1.359906554E0,4.137180328E0,7.699752808E0
2.679500156E1,1.149216771E0,3.371036053E0,8.389283180E0
2.681999844E1,1.340752959E0,2.748543501E0,8.714894295E0
2.684499531E1,2.039859772E0,2.576161146E0,9.730035782E0
2.686999219E1,1.771709204E0,4.788403511E0,8.293514252E0
2.688999844E1,1.666364431E0,7.115567684E0,8.341399193E0
2.691000469E1,1.953668594E0,9.117119789E0,7.929595947E0
2.693500156E1,2.202665567E0,8.935160637E0,8.063671112E0
2.695999844E1,1.168370485E0,8.705317497E0,7.718906403E0
2.698499375E1,1.005564690E0,8.006210327E0,7.460332394E0
2.700999062E1,1.101332784E0,7.958326340E0,7.173028469E0
2.703498750E1,1.465251446E0,8.810662270E0,7.891288757E0
2.705998438E1,1.781286120E0,8.734047890E0,7.728483200E0
2.708000625E1,1.666364431E0,7.422025204E0,6.818686485E0
2.710500313E1,2.614468336E0,6.703764915E0,6.368576527E0
2.712999844E1,2.777273893E0,8.552088737E0,7.441178799E0
2.715499531E1,1.742978811E0,9.097966194E0,7.412448406E0
2.717999219E1,1.446097851E0,7.374141216E0,5.908889771E0
2.720498750E1,1.742978811E0,6.799532890E0,6.138733387E0
2.722998594E1,1.771709204E0,7.766790390E0,6.617573261E0
2.725498125E1,2.116474390E0,7.824251175E0,7.383718014E0
2.727500312E1,2.288856745E0,7.163451672E0,8.791508675E0
2.730002500E1,2.480392933E0,6.550535679E0,9.615114212E0
2.732499688E1,2.346317768E0,7.134721279E0,8.887276649E0
2.734999844E1,1.934514999E0,7.374141216E0,7.987056732E0
2.737498906E1,2.336740971E0,6.627150536E0,7.489062786E0
2.739998594E1,8.236053586E-1,5.679046631E0,7.383718014E0
2.742498281E1,-3.926490843E-1,4.778826714E0,7.268796444E0
2.744500469E1,-2.968810201E-1,4.644751072E0,8.714894295E0
2.747002031E1,5.171475410E-1,5.535394192E0,7.987056732E0
2.749499688E1,2.777273953E-1,5.094861031E0,7.546523571E0
2.751999375E1,-1.388636947E0,4.175487995E0,8.781931877E0
2.754000625E1,-2.231395960E0,4.127603531E0,1.180820274E1
2.756498125E1,2.489969730E-1,6.253654957E0,1.312022495E1
2.758500312E1,3.524264812E0,8.667010307E0,9.864110947E0
2.761000000E1,2.547430515E0,7.958326340E0,9.615114212E0
2.763499688E1,-2.681505978E-1,2.700659513E0,8.781931877E0
2.765999375E1,-1.091755986E0,-1.704671621E0,7.527369976E0
2.768498906E1,-1.091755986E0,-8.331822157E-1,6.406883717E0
2.770999219E1,-4.979939461E-1,4.309563041E-1,4.778826714E0
2.773498125E1,-7.469909191E-1,-1.704671621E0,4.692635536E0
2.775500469E1,-1.733402014E0,-3.035847664E0,4.912901878E0
2.778000156E1,-1.570596337E0,-2.825158119E0,6.167463779E0
2.780499688E1,-1.838746905E0,-3.371036053E0,8.331821442E0
2.782999531E1,-2.020706177E0,-4.989516258E0,1.237323475E1
2.785499063E1,-1.149216816E-1,-6.224924564E0,1.665406609E1
2.787998750E1,1.532289028E0,-1.053448796E0,1.574427032E1
2.790498281E1,1.149216771E0,5.746084213E0,1.083136845E1
2.792500469E1,2.873041928E-1,8.073247910E0,8.868123055E0
2.795000313E1,9.289502501E-1,5.717353821E0,6.148310184E0
2.797499844E1,-1.149216816E-1,3.926490843E-1,5.573701382E0
2.799999531E1,-1.225831270E0,-1.905784607E0,5.659893036E0
2.802499062E1,-8.044517636E-1,-1.072602391E0,4.692635536E0
2.804998750E1,-1.723825186E-1,1.197100878E0,6.244078159E0
2.807498438E1,-2.585737705E-1,2.748543501E0,8.686163902E0
2.809998281E1,-1.723825186E-1,3.093308687E0,8.216899872E0
2.812000312E1,-6.799532771E-1,4.041412354E0,8.360552788E0
2.814500000E1,3.926490843E-1,6.177040577E0,8.465897560E0
2.817002031E1,2.949656487E0,7.939172745E0,9.059659004E0
2.819499219E1,4.740519524E0,8.714894295E0,9.107542992E0
2.821998906E1,3.667917013E0,8.092401505E0,9.758766174E0
2.824498594E1,2.892195702E0,7.297526836E0,8.418013573E0
2.826998281E1,1.829170108E0,7.958326340E0,7.738059998E0
2.829000469E1,8.331822157E-1,8.667010307E0,6.464344501E0
2.831500156E1,9.193734527E-1,7.623138428E0,5.985504150E0
2.833999844E1,6.607996821E-1,6.981492043E0,6.282385349E0
2.836499375E1,8.906430602E-1,7.508216381E0,6.924031258E0
2.838999063E1,1.244984865E0,8.216899872E0,7.651868820E0
2.841498594E1,1.781286120E0,9.241618156E0,7.259219646E0
2.843998281E1,2.470816135E0,8.858546257E0,7.182605267E0
2.846000625E1,2.375048161E0,7.805097580E0,7.757213593E0
2.848500156E1,2.202665567E0,7.058106422E0,7.364564419E0
2.850999844E1,2.949656487E0,6.703764915E0,6.732495308E0
2.853499531E1,3.122039080E0,6.330269337E0,7.326257229E0
2.855999062E1,2.317587137E0,6.349422932E0,7.316680431E0
2.858498750E1,2.269703150E0,7.153874874E0,8.140285492E0
2.860998594E1,2.710236311E0,7.517793179E0,9.222464561E0
2.863000625E1,1.982398987E0,7.230489254E0,8.341399193E0
2.865500312E1,5.841852427E-1,6.397306919E0,6.789956093E0
2.868000000E1,1.963245392E0,5.880159378E0,7.814674377E0
2.870499531E1,2.470816135E0,6.282385349E0,9.145850182E0
2.872999219E1,1.628057122E0,6.129156113E0,9.126696587E0
2.875498750E1,4.692635238E-1,5.382165432E0,8.695740700E0
2.877998594E1,-4.788403213E-2,4.960785866E0,1.019929886E1
2.880498125E1,9.576806426E-2,5.190629482E0,9.385271072E0
2.882500781E1,7.374141216E-1,4.702212334E0,9.097966194E0
2.885002969E1,7.948749661E-1,3.658340216E0,9.768342972E0
2.887499688E1,7.661445141E-1,3.811569214E0,9.059659004E0
2.890002031E1,3.926490843E-1,3.801992416E0,8.724471092E0
2.892498906E1,-6.703764945E-2,3.131615877E0,8.810662270E0
2.894998594E1,-1.417367458E0,8.523358107E-1,9.346963882E0
2.897498281E1,-3.476380825E0,-9.864110947E-1,8.398859978E0
2.899500469E1,-3.744531393E0,-1.829170108E0,8.255207062E0
2.902000156E1,-2.796427488E0,-6.416460276E-1,7.393294811E0
2.904499844E1,-1.503558636E0,-1.063025594E0,7.249642849E0
2.906999531E1,2.873042040E-2,1.723825186E-1,8.312667847E0
2.909499062E1,6.607996821E-1,-7.278373241E-1,8.025363922E0
2.911998750E1,9.576806426E-2,-7.469909191E-1,8.073247910E0
2.914498438E1,-1.829170108E0,-3.734954596E-1,8.446743965E0
2.916500625E1,-1.503558636E0,-7.852981687E-1,9.165003777E0
2.919000312E1,-9.864110947E-1,-1.350329757E0,8.465897560E0
2.921499844E1,-2.049436569E0,-4.692635238E-1,9.059659004E0
2.923999531E1,-1.034295082E0,5.267243981E-1,8.676587105E0
2.926499219E1,1.053448766E-1,3.064578176E-1,7.671022415E0
2.928998906E1,-5.363011956E-1,6.703764796E-1,9.002198219E0
2.931498438E1,9.385270476E-1,8.427590132E-1,7.881711960E0
2.933998125E1,6.703764796E-1,1.493981838E0,7.575253963E0
2.936000625E1,4.692635238E-1,2.269703150E0,7.776367188E0
2.938500000E1,1.053448766E-1,3.055001259E0,8.427590370E0
2.941003594E1,7.374141216E-1,3.687070608E0,8.705317497E0
2.943499375E1,1.944091797E0,4.979939461E0,8.935160637E0
2.945998906E1,2.403778553E0,6.694188118E0,1.037168217E1
2.948498594E1,3.169923067E0,7.422025204E0,1.027591324E1
2.950998281E1,1.551442742E0,7.240066051E0,8.839392662E0
2.953000469E1,4.884171486E-1,7.211335659E0,7.594407558E0
2.955500156E1,9.289502501E-1,6.464344501E0,8.025363922E0
2.957999844E1,1.580173135E0,5.937620163E0,8.044517517E0
2.960499375E1,1.733402014E0,6.981492043E0,7.460332394E0
2.962999062E1,2.173935175E0,7.709329605E0,7.651868820E0
2.965002188E1,1.446097851E0,7.939172745E0,7.747636795E0
2.967497813E1,1.647210717E0,8.121131897E0,8.197746277E0
2.969500000E1,1.608903527E0,8.628703117E0,7.642292023E0
2.971999688E1,2.537853718E0,8.418013573E0,7.182605267E0
2.974499375E1,1.915361404E0,7.182605267E0,6.866570473E0
2.976999063E1,2.288856745E0,7.278373241E0,7.096413612E0
2.979498594E1,2.020706177E0,8.025363922E0,7.077260017E0
2.981998125E1,1.704671621E0,8.006210327E0,5.803544998E0
2.984000469E1,1.024718285E0,7.584830761E0,6.397306919E0
2.986500156E1,7.182605267E-1,7.230489254E0,7.096413612E0
2.988999844E1,1.359906554E0,7.326257229E0,8.264783859E0
2.991499375E1,1.685518026E0,7.125144482E0,7.738059998E0
2.993999063E1,2.557007313E0,6.617573261E0,7.862558365E0
2.996498594E1,2.614468336E0,5.918466568E0,8.705317497E0
2.998998594E1,1.838746905E0,5.755661011E0,8.398859978E0
3.001002344E1,1.656787634E0,6.339846134E0,8.188169479E0
3.003500156E1,2.030282974E0,6.186617374E0,9.787496567E0
3.006002031E1,2.164358377E0,5.439626217E0,8.906430244E0
3.008499531E1,1.541865945E0,5.267243862E0,9.940725327E0
3.010999219E1,6.129156351E-1,5.353435040E0,9.299078941E0
3.013498750E1,4.118026793E-1,4.663905144E0,9.097966194E0
3.015998438E1,-1.340752989E-1,4.194641590E0,9.165003777E0
3.018498125E1,-1.168370485E0,3.849876404E0,9.624691010E0
3.020500312E1,-1.379060149E0,3.217807055E0,9.299078941E0
3.023000000E1,-1.024718285E0,2.604891539E0,8.743624687E0
3.025499531E1,-5.267243981E-1,2.049436569E0,8.839392662E0
3.027999375E1,-1.043871999E0,1.503558636E0,8.283937454E0
3.030001094E1,-1.934514999E0,6.512228847E-1,8.341399193E0
3.032497969E1,-2.461239338E0,-2.202665508E-1,9.030928612E0
3.034500156E1,-1.666364431E0,-1.532289088E-1,8.513781548E0
3.036999844E1,-7.948749661E-1,1.723825186E-1,7.872135162E0
3.039499531E1,-1.015141487E0,-5.650315881E-1,8.341399193E0
3.041999219E1,-1.158793569E0,-2.221819162E0,7.824251175E0
3.044498750E1,-1.359906554E0,-1.283292055E0,8.054094315E0
3.046998438E1,-1.465251446E0,1.915361285E-1,8.054094315E0
3.049498125E1,-2.221819162E0,7.661445439E-2,8.973467827E0
3.051500313E1,-9.959878922E-1,-4.309563041E-1,8.216899872E0
3.054000000E1,-1.982398987E0,-9.385270476E-1,9.528923035E0
3.056499688E1,-8.906430602E-1,-4.309563041E-1,9.385271072E0
3.058999375E1,2.968810201E-1,4.309563041E-1,7.738059998E0
3.061498906E1,3.830722570E-1,1.072602391E0,7.125144482E0
3.063998594E1,-9.481038451E-1,1.005564690E0,7.738059998E0
3.066498125E1,-8.619126081E-1,6.129156351E-1,8.686163902E0
3.068500469E1,7.661445439E-2,9.959878922E-1,8.475474358E0
3.071000156E1,1.398213744E0,2.920926094E0,9.260771751E0
3.073499688E1,1.570596337E0,6.071695328E0,1.022802925E1
3.076000312E1,2.269703150E0,7.565677166E0,8.188169479E0
3.078499063E1,1.436521053E0,7.431602001E0,7.920019150E0
3.080998750E1,7.757213712E-1,5.085284233E0,8.092401505E0
3.083498281E1,9.768342972E-1,4.271255970E0,8.446743965E0
3.085500469E1,1.130063176E0,4.434061527E0,8.542511940E0
3.088000312E1,1.407790542E0,5.717353821E0,8.169015884E0
3.090499844E1,1.647210717E0,7.163451672E0,8.494627953E0
3.092999531E1,2.365471363E0,8.724471092E0,8.293514252E0
3.095499062E1,2.202665567E0,9.557653427E0,7.795520782E0
3.097998750E1,1.647210717E0,8.619126320E0,7.680599213E0
3.100498438E1,1.857900500E0,7.584830761E0,7.441178799E0
3.102998125E1,2.193088770E0,7.623138428E0,6.971915245E0
3.105000938E1,2.403778553E0,7.805097580E0,6.943184853E0
3.107500000E1,1.714248419E0,8.513781548E0,6.742072105E0
3.110001094E1,1.886630893E0,8.609549522E0,7.297526836E0
3.112499219E1,1.522712231E0,7.546523571E0,7.402871609E0
3.115002031E1,2.413355350E0,7.077260017E0,7.383718014E0
3.117498594E1,3.495534420E0,7.345410824E0,7.498639584E0
3.119998125E1,2.882618904E0,7.335834026E0,6.828263283E0
3.122000469E1,1.733402014E0,6.933608055E0,6.799532890E0
3.124500156E1,1.465251446E0,6.694188118E0,7.259219646E0
3.126999688E1,1.666364431E0,6.157886982E0,8.303091049E0
3.129499375E1,1.877054095E0,6.416460514E0,8.418013573E0
3.131998906E1,1.580173135E0,7.316680431E0,8.370129585E0
3.134498594E1,1.426944256E0,7.058106422E0,7.939172745E0
3.136998281E1,8.619126081E-1,6.234501362E0,8.743624687E0
3.139000781E1,1.398213744E0,5.861005783E0,8.916007042E0
3.141001094E1,1.857900500E0,5.822698593E0,8.628703117E0
3.143499375E1,1.149216771E0,5.477933407E0,8.925583839E0
3.146003594E1,1.723825186E-1,5.315127850E0,8.925583839E0
3.148498594E1,8.044517636E-1,4.635174274E0,8.599972725E0
3.150998125E1,3.160346150E-1,3.801992416E0,8.801085472E0
3.153000469E1,-2.585737705E-1,3.533841610E0,9.548076630E0
3.155500000E1,-7.278373241E-1,3.428496838E0,9.634267807E0
3.157999844E1,7.661445439E-2,3.141192675E0,9.442731857E0
3.160499375E1,2.777273953E-1,2.978386879E0,9.998186111E0
3.162999062E1,-5.650315881E-1,2.317587137E0,8.916007042E0
3.165498594E1,-1.417367458E0,7.469909191E-1,1.045787334E1
3.167998438E1,-4.979939461E-1,-2.489969730E-1,8.350975990E0
3.170000469E1,-1.015141487E0,-1.628057212E-1,5.918466568E0
3.172500156E1,-2.221819162E0,-5.650315881E-1,6.110002518E0
3.174999844E1,-1.580173135E0,-1.656787634E0,7.795520782E0
3.177499531E1,-1.742978811E0,-2.480392933E0,7.757213593E0
3.179999063E1,-2.154781580E0,-1.503558636E0,7.335834026E0
3.182498750E1,-2.240972757E0,4.884171486E-1,8.820239067E0
3.184998438E1,-1.417367458E0,5.267243981E-1,8.877699852E0
3.187498125E1,-5.075707436E-1,9.576806799E-3,8.801085472E0
3.189500313E1,-5.841852427E-1,6.703764945E-2,9.030928612E0
3.192000000E1,-1.139639974E0,-1.628057212E-1,9.490615845E0
3.194499531E1,-1.139639974E0,3.639186621E-1,9.394847870E0
3.196999219E1,-4.213795066E-1,1.120486379E0,8.331821442E0
3.199498906E1,-1.053448766E-1,2.509123325E0,8.820239067E0
3.202002344E1,7.374141216E-1,2.442085743E0,8.973467827E0
3.204498125E1,7.661445141E-1,1.513135433E0,8.465897560E0
3.206500313E1,6.033388376E-1,5.746083856E-1,7.939172745E0
3.209000156E1,0.000000000E0,1.187524080E0,8.571242332E0
3.211499688E1,3.830722719E-2,3.179499865E0,7.738059998E0
3.213999375E1,1.254561663E0,5.248090267E0,8.992621422E0
3.216000781E1,2.087743998E0,6.464344501E0,8.580819130E0
3.218498125E1,2.547430515E0,7.441178799E0,9.078812599E0
3.220500313E1,2.767697096E0,8.101978302E0,7.852981567E0
3.223000000E1,2.336740971E0,7.738059998E0,7.814674377E0
3.225002188E1,1.551442742E0,7.201758862E0,8.734047890E0
3.227498594E1,1.312022567E0,6.914454460E0,7.843404770E0
3.230001250E1,4.788403511E-1,7.565677166E0,7.441178799E0
3.232502344E1,1.264138460E0,8.628703117E0,6.473921299E0
3.234997656E1,2.336740971E0,9.050082207E0,7.824251175E0
3.236999844E1,3.055001259E0,9.433155060E0,7.354987621E0
3.239499531E1,2.308010340E0,8.714894295E0,7.335834026E0
3.241999219E1,1.963245392E0,7.833827972E0,6.531382084E0
3.244498750E1,2.068590164E0,6.588842869E0,6.397306919E0
3.246998438E1,1.618480325E0,6.426037312E0,6.885724068E0
3.249498125E1,2.470816135E0,7.335834026E0,7.201758862E0
3.251500312E1,2.365471363E0,7.776367188E0,7.450755596E0
3.254000000E1,1.608903527E0,7.776367188E0,7.776367188E0
3.256499531E1,2.547430515E0,7.259219646E0,8.169015884E0
3.258999375E1,1.886630893E0,7.220912457E0,7.939172745E0
3.261498906E1,1.589749932E0,7.374141216E0,7.517793179E0
3.263998594E1,2.499546528E0,6.914454460E0,9.088389397E0
3.266498125E1,2.710236311E0,7.029376030E0,8.245630264E0
3.268500312E1,1.848323703E0,6.521805286E0,7.278373241E0
3.271000156E1,1.407790542E0,5.181052685E0,7.824251175E0
3.273499688E1,1.101332784E0,4.932055473E0,9.021351814E0
3.275999375E1,5.650315881E-1,5.822698593E0,8.983044624E0
3.278001250E1,-3.926490843E-1,5.966350555E0,9.500192642E0
3.280498125E1,-4.884171486E-1,5.372588634E0,8.906430244E0
3.282503906E1,2.106897533E-1,4.989516258E0,8.063671112E0
3.285000156E1,-2.585737705E-1,4.175487995E0,9.787496567E0
3.287499531E1,8.619125932E-2,3.131615877E0,9.260771751E0
3.289999219E1,-7.661445439E-2,3.552995205E0,8.676587105E0
3.292498906E1,-5.937620401E-1,3.620033026E0,8.992621422E0
3.294998594E1,1.149216816E-1,2.442085743E0,8.877699852E0
3.297498125E1,-3.160346150E-1,1.082179189E0,8.379706383E0
3.299500469E1,-8.906430602E-1,6.033388376E-1,8.389283180E0
3.302000156E1,-1.302445769E0,8.044517636E-1,9.117119789E0
3.304499688E1,-2.375048161E0,-2.873041928E-1,8.379706383E0
3.306999375E1,-1.685518026E0,-1.465251446E0,9.615114212E0
3.309499062E1,-1.005564690E0,-6.033388376E-1,7.125144482E0
3.311998750E1,-5.363011956E-1,-3.160346150E-1,7.805097580E0
3.314498281E1,-9.576807022E-1,-1.053448766E-1,8.973467827E0
3.316500469E1,-1.675941229E0,-7.086837292E-1,9.730035782E0
3.319000313E1,-1.187524080E0,-1.819593310E-1,8.121131897E0
3.321499844E1,-1.254561663E0,-2.106897533E-1,8.283937454E0
3.323999531E1,-1.206677675E0,-5.363011956E-1,8.207323074E0
3.326499062E1,-1.417367458E0,-7.661445141E-1,7.920019150E0
3.328998750E1,-1.695094824E0,-5.267243981E-1,8.073247910E0
3.331498438E1,-8.331822157E-1,6.607996821E-1,8.542511940E0
3.333998125E1,-1.915361360E-2,1.206677675E0,8.839392662E0
3.336000312E1,6.703764945E-2,1.723825216E0,9.892841339E0
3.338500000E1,9.864110947E-1,2.815581083E0,9.327810287E0
3.341002500E1,1.063025594E0,2.911349297E0,8.207323074E0
3.343499219E1,-7.661445141E-1,3.169923067E0,8.197746277E0
3.345998906E1,-9.385270476E-1,3.275267839E0,8.753201485E0
3.348498438E1,-6.703764945E-2,3.533841610E0,8.293514252E0
3.350998125E1,1.091755986E0,4.376600742E0,8.379706383E0
3.353000469E1,1.618480325E0,5.008669853E0,8.772355080E0
3.355001250E1,2.413355350E0,5.793968201E0,8.820239067E0
3.357499063E1,2.777273893E0,7.086836815E0,8.456320763E0
3.359998906E1,2.422932148E0,7.690176010E0,8.092401505E0
3.361999531E1,1.225831270E0,7.287950039E0,8.619126320E0
3.364000156E1,8.044517636E-1,6.933608055E0,8.274360657E0
3.366499688E1,2.873041928E-1,7.249642849E0,7.987056732E0
3.368999531E1,1.034295082E0,8.159439087E0,7.881711960E0
3.371000469E1,1.982398987E0,9.279925346E0,7.967903137E0
3.373498125E1,2.116474390E0,9.615114212E0,7.536946774E0
3.375500312E1,1.819593310E0,9.232041359E0,6.560112476E0
3.378000000E1,1.857900500E0,7.489062786E0,6.042964935E0
3.380499688E1,1.350329757E0,6.378153324E0,6.435614109E0
3.382999375E1,1.608903527E0,7.010222435E0,6.560112476E0
3.385498906E1,2.231395960E0,7.862558365E0,6.713341713E0
3.387998594E1,1.733402014E0,8.274360657E0,7.766790390E0
3.390498125E1,3.169923067E0,9.299078941E0,8.360552788E0
3.392500469E1,3.505111217E0,9.002198219E0,7.977479935E0
3.395000156E1,2.624045134E0,6.770802498E0,6.167463779E0
3.397499688E1,1.235408068E0,5.439626217E0,6.473921299E0
3.400001094E1,3.639186621E-1,5.382165432E0,7.833827972E0
3.402499062E1,9.193734527E-1,7.134721279E0,9.059659004E0
3.405002031E1,1.781286120E0,7.996633530E0,9.366117477E0
3.407498281E1,1.896207690E0,7.699752808E0,7.766790390E0
3.409500625E1,9.864110947E-1,6.732495308E0,6.627150536E0
3.412000469E1,9.672574997E-1,5.506663799E0,8.188169479E0
3.414499844E1,3.926490843E-1,5.353435040E0,9.979032516E0
3.416999531E1,3.256114423E-1,5.391742229E0,9.356540680E0
3.419499219E1,6.224924326E-1,5.008669853E0,8.734047890E0
3.421998906E1,8.236053586E-1,4.587290287E0,8.906430244E0
3.424498438E1,3.830722570E-1,4.194641590E0,9.414001465E0
3.426998125E1,1.340752989E-1,3.974374771E0,9.097966194E0
3.429000313E1,-2.202665508E-1,4.213795185E0,9.653421402E0
3.431500000E1,-1.225831270E0,4.012681961E0,9.346963882E0
3.433999688E1,-1.130063176E0,2.700659513E0,9.011775017E0
3.436499219E1,-2.011129409E-1,7.852981687E-1,8.418013573E0
3.438998906E1,-3.351882398E-1,-1.915361360E-2,7.728483200E0
3.441000625E1,-3.639186621E-1,-8.236053586E-1,7.814674377E0
3.443497656E1,-5.075707436E-1,-1.886630893E0,8.370129585E0
3.445499844E1,-8.044517636E-1,-1.312022567E0,8.935160637E0
3.447999688E1,8.619125932E-2,-1.915361285E-1,7.642292023E0
3.450499219E1,-8.427590132E-1,6.416460276E-1,7.996633530E0
3.452998906E1,-7.948749661E-1,-1.819593310E-1,9.251194954E0
3.455498438E1,-1.561019540E0,-4.788403213E-2,9.174580574E0
3.457998125E1,-1.551442742E0,1.436520964E-1,8.810662270E0
3.460000469E1,-1.972822189E0,2.106897533E-1,8.379706383E0
3.462500000E1,-2.135627985E0,-8.619125932E-2,8.820239067E0
3.465000625E1,-1.522712231E0,-1.149216816E-1,8.293514252E0
3.467499219E1,-1.235408068E0,1.915361360E-2,8.188169479E0
3.469998906E1,-1.187524080E0,-1.628057212E-1,7.766790390E0
3.472498438E1,-1.101332784E0,8.619126081E-1,8.398859978E0
3.474998438E1,-2.489969730E-1,2.011129379E0,9.346963882E0
3.477000469E1,6.416460276E-1,2.480392933E0,8.983044624E0
3.479500156E1,4.884171486E-1,2.585737944E0,9.241618156E0
3.481999688E1,6.129156351E-1,2.662352324E0,9.452308655E0
3.484499375E1,7.182605267E-1,3.007117271E0,8.082824707E0
3.486999062E1,5.650315881E-1,3.572149038E0,8.379706383E0
3.489498594E1,1.139639974E0,4.012681961E0,8.264783859E0
3.491998438E1,1.235408068E0,4.395754337E0,8.418013573E0
3.494000625E1,6.033388376E-1,5.391742229E0,8.734047890E0
3.496500156E1,4.596867263E-1,6.799532890E0,7.958326340E0
3.498999844E1,8.044517636E-1,8.475474358E0,9.222464561E0
3.501001094E1,1.628057122E0,8.973467827E0,8.791508675E0
3.503498594E1,2.202665567E0,8.619126320E0,7.795520782E0
3.505998281E1,2.116474390E0,7.824251175E0,6.435614109E0
3.508000469E1,1.800439715E0,7.498639584E0,6.732495308E0
3.510500000E1,1.762132406E0,7.546523571E0,7.029376030E0
3.512999688E1,1.714248419E0,8.609549522E0,7.412448406E0
3.515499375E1,1.934514999E0,9.423578262E0,7.412448406E0
3.517999062E1,1.675941229E0,8.839392662E0,6.607996464E0
3.520498594E1,1.589749932E0,8.743624687E0,7.249642849E0
3.522998281E1,3.026270866E0,9.940725327E0,8.264783859E0
3.525000625E1,3.524264812E0,1.008437729E1,8.542511940E0
3.527500156E1,2.806004286E0,9.481039047E0,8.398859978E0
3.530000156E1,2.585737944E0,8.207323074E0,6.943184853E0
3.532502031E1,1.474828243E0,6.253654957E0,7.498639584E0
3.534999219E1,1.829170108E0,5.458779812E0,5.784391403E0
3.537498750E1,1.110909581E0,6.071695328E0,5.583278179E0
3.539999688E1,2.959233284E0,6.378153324E0,8.034940720E0
3.542498125E1,2.308010340E0,6.426037312E0,8.590395927E0
3.544500312E1,-3.830722719E-2,5.908889771E0,8.169015884E0
3.547000000E1,-1.436520964E-1,5.640739441E0,8.552088737E0
3.549499531E1,6.416460276E-1,5.640739441E0,1.170285797E1
3.551999219E1,2.461239338E0,5.219359875E0,1.354160500E1
3.554498906E1,3.849876404E0,6.090848923E0,1.067813969E1
3.556998594E1,3.294421434E0,7.469909191E0,9.270348549E0
3.558999688E1,2.126051188E0,7.594407558E0,7.852981567E0
3.561003438E1,5.841852427E-1,6.100425720E0,6.981492043E0
3.563499531E1,-3.256114423E-1,4.750096321E0,7.115567684E0
3.566002188E1,-1.417367458E0,3.696647406E0,7.852981567E0
3.568498750E1,-2.039859772E0,2.873042107E0,8.408436775E0
3.571001719E1,-2.671929121E0,6.224924326E-1,9.749189377E0
3.573498125E1,-1.235408068E0,1.302445769E0,6.742072105E0
3.575500312E1,-5.650315881E-1,2.068590164E0,7.010222435E0
3.578000000E1,-1.991975784E0,1.589749932E0,7.632715225E0
3.580499531E1,-3.074155092E0,1.628057212E-1,8.063671112E0
3.582999375E1,-1.915361285E-1,-6.320692301E-1,8.216899872E0
3.585498906E1,-1.819593310E-1,3.064578176E-1,7.584830761E0
3.587998594E1,-3.160346150E-1,-5.746084079E-2,8.628703117E0
3.590000313E1,-1.168370485E0,-4.596867263E-1,8.609549522E0
3.592500469E1,-2.815581083E0,-1.350329757E0,7.029376030E0
3.595000000E1,-2.681505919E0,-1.752555609E0,8.188169479E0
3.597499688E1,-2.011129379E0,-1.513135433E0,8.456320763E0
3.599999375E1,-1.991975784E0,1.331176162E0,8.303091049E0
3.602499062E1,-8.044517636E-1,2.748543501E0,7.881711960E0
3.604998750E1,-1.331176162E0,7.757213712E-1,8.293514252E0
3.607498281E1,-1.216254473E0,-1.139639974E0,8.638279915E0
3.609500469E1,-1.790862918E0,-9.576807022E-1,8.446743965E0
3.612000313E1,-8.140285611E-1,1.819593310E-1,8.418013573E0
3.614499844E1,7.661445439E-2,6.129156351E-1,8.906430244E0
3.616999531E1,4.501099288E-1,8.714894056E-1,8.868123055E0
3.619499062E1,3.064578176E-1,1.991975784E0,8.657433510E0
3.621998750E1,1.015141487E0,3.074155092E0,9.251194954E0
3.624498438E1,1.666364431E0,5.008669853E0,9.308655739E0
3.626998125E1,1.944091797E0,5.889736176E0,8.580819130E0
3.629002031E1,1.302445769E0,5.200206280E0,8.226476669E0
3.631499844E1,8.427590132E-1,3.275267839E0,8.772355080E0
3.633999688E1,1.331176162E0,2.806004286E0,7.843404770E0
3.636499219E1,1.206677675E0,3.323152065E0,7.642292023E0
3.638998906E1,4.022258818E-1,4.740519524E0,7.862558365E0
3.641498438E1,4.022258818E-1,7.460332394E0,8.092401505E0
3.643998281E1,1.120486379E0,9.864110947E0,7.862558365E0
3.646000469E1,1.522712231E0,1.085052204E1,7.900865555E0
3.648500000E1,1.877054095E0,9.998186111E0,7.498639584E0
3.650999688E1,2.566584110E0,8.245630264E0,6.933608055E0
3.653499375E1,2.269703150E0,6.607996464E0,7.383718014E0
3.655999063E1,1.857900500E0,5.899312973E0,7.402871609E0
3.658498594E1,2.145204782E0,8.322244644E0,7.967903137E0
3.660998281E1,2.920926094E0,1.201889229E1,8.475474358E0
3.663000625E1,2.346317768E0,1.335964584E1,7.383718014E0
3.665500156E1,1.829170108E0,9.366117477E0,6.023811340E0
3.667999844E1,1.436521053E0,5.535394192E0,5.659893036E0
3.670499375E1,1.225831270E0,4.232948780E0,4.989516258E0
3.672999062E1,1.005564690E0,5.554547787E0,6.253654957E0
3.675498750E1,2.116474390E0,7.910442352E0,7.287950039E0
3.677998438E1,2.106897593E0,9.423578262E0,8.044517517E0
3.680000625E1,1.877054095E0,8.887276649E0,7.920019150E0
3.682500781E1,1.436521053E0,7.278373241E0,7.125144482E0
3.685003281E1,1.340752959E0,6.311115742E0,8.121131897E0
3.687499531E1,2.767697096E0,7.096413612E0,1.032379818E1
3.690000625E1,3.141192675E0,8.638279915E0,1.026633644E1
3.692498750E1,1.905784607E0,9.892841339E0,9.251194954E0
3.694998594E1,2.403778553E0,8.561665535E0,8.331821442E0
3.696999219E1,2.671929121E0,5.430049419E0,7.249642849E0
3.698999844E1,7.948749661E-1,3.428496838E0,7.412448406E0
3.701499375E1,-3.926490843E-1,2.183511972E0,7.718906403E0
3.703999062E1,-8.810662031E-1,3.351882458E0,8.532935143E0
3.706498750E1,7.661445439E-2,4.022258759E0,8.456320763E0
3.708998438E1,2.394201756E-1,4.261679173E0,9.509769440E0
3.711002344E1,3.926490843E-1,3.830722809E0,9.950302124E0
3.713500313E1,-7.661445439E-2,4.185064793E0,1.048660374E1
3.716000000E1,-6.703764796E-1,3.572149038E0,9.586383820E0
3.718499531E1,-7.852981687E-1,1.714248419E0,9.921571732E0
3.720999219E1,-3.016694069E0,1.177947283E0,7.824251175E0
3.723498750E1,-3.801992416E0,9.385270476E-1,7.431602001E0
3.725998594E1,-2.183511972E0,1.532289088E-1,7.603984833E0
3.728498125E1,-1.618480325E0,-1.915361360E-2,6.033388138E0
3.730500312E1,-1.264138460E0,-1.819593310E-1,6.598419666E0
3.732503125E1,-9.672574997E-1,-2.614468336E0,7.718906403E0
3.734999063E1,-1.599326730E0,-3.610456228E0,8.628703117E0
3.737498750E1,-6.607996821E-1,-1.063025594E0,7.546523571E0
3.739998438E1,-1.082179189E0,1.244984865E-1,7.623138428E0
3.742000625E1,-1.819593310E0,4.405331016E-1,8.207323074E0
3.744500312E1,-2.547430515E0,3.830722570E-1,9.969455719E0
3.747000000E1,-1.877054095E0,-4.405331016E-1,1.023760605E1
3.749499531E1,-9.864110947E-1,1.053448766E-1,8.896853447E0
3.751999219E1,-1.532289028E0,1.934514999E0,8.532935143E0
3.754498906E1,-1.359906554E0,1.589749932E0,9.615114212E0
3.756998594E1,-6.512228847E-1,1.848323703E0,7.661445618E0
3.759498125E1,-1.340752959E0,3.284844637E0,7.671022415E0
3.761500312E1,-7.278373241E-1,3.390189648E0,8.877699852E0
3.764000156E1,6.129156351E-1,2.106897593E0,8.992621422E0
3.766499688E1,-1.053448766E-1,2.039859772E0,8.226476669E0
3.768999375E1,2.202665508E-1,3.371036053E0,8.197746277E0
3.771498906E1,1.158793569E0,5.267243862E0,7.565677166E0
3.773998594E1,1.216254473E0,6.847416878E0,7.613561630E0
3.776498281E1,1.503558636E0,7.967903137E0,8.724471092E0
3.778500469E1,1.819593310E0,7.785943985E0,8.169015884E0
3.781000156E1,5.746083856E-1,7.268796444E0,7.469909191E0
3.783499844E1,1.340752989E-1,7.441178799E0,7.852981567E0
3.785999531E1,3.830722719E-2,7.709329605E0,8.475474358E0
3.788499062E1,1.244984865E0,7.987056732E0,7.843404770E0
3.790998750E1,1.953668594E0,8.657433510E0,7.192182064E0
3.793498438E1,1.877054095E0,9.969455719E0,8.350975990E0
3.795500625E1,2.327163935E0,1.084094524E1,8.599972725E0
3.798000312E1,2.011129379E0,1.042914295E1,7.364564419E0
3.800499844E1,9.576807022E-1,7.805097580E0,6.004657745E0
3.802999688E1,8.906430602E-1,5.161899090E0,5.803544998E0
3.805499219E1,1.618480325E0,4.702212334E0,6.234501362E0
3.807998906E1,2.432508945E0,6.856993675E0,7.584830761E0
3.810498438E1,2.183511972E0,8.743624687E0,7.747636795E0
3.812998125E1,2.039859772E0,9.481039047E0,7.479485989E0
3.815000469E1,1.934514999E0,9.222464561E0,7.728483200E0
3.817500000E1,2.470816135E0,8.753201485E0,7.958326340E0
3.819999688E1,2.279279947E0,8.446743965E0,8.552088737E0
3.822499219E1,2.193088770E0,8.638279915E0,8.331821442E0
3.825000156E1,1.493981838E0,9.011775017E0,8.092401505E0
3.827498594E1,1.589749932E0,7.824251175E0,7.374141216E0
3.829999688E1,1.426944256E0,5.439626217E0,6.924031258E0
3.832000469E1,-1.244984865E-1,4.491522312E0,7.393294811E0
3.834500156E1,-1.723825216E0,5.027823448E0,8.657433510E0
3.836999844E1,-1.704671621E0,6.311115742E0,1.015141487E1
3.839000000E1,-3.734954596E-1,6.732495308E0,1.022802925E1
3.841001250E1,1.206677675E0,6.502651691E0,9.509769440E0
3.843497656E1,1.522712231E0,7.134721279E0,9.375694275E0
3.845499844E1,1.302445769E0,7.019799232E0,9.825803757E0
3.847999531E1,-4.022258818E-1,4.769249916E0,9.921571732E0
3.850499063E1,-8.906430602E-1,5.458779931E-1,9.088389397E0
3.853001406E1,6.703764796E-1,-1.886630893E0,8.848969460E0
3.855002031E1,1.436521053E0,-1.714248419E0,7.709329605E0
3.857500625E1,2.106897593E0,-9.002198577E-1,6.924031258E0
3.860000312E1,2.145204782E0,-7.086837292E-1,4.558559895E0
3.862499844E1,-1.225831270E0,-1.618480325E0,5.046977043E0
3.864999688E1,-3.897760391E0,-3.064578056E0,6.569689274E0
3.867499219E1,-3.112462282E0,-6.033388376E-1,8.370129585E0
3.870002656E1,-1.848323703E0,9.193734527E-1,9.816226959E0
3.872498438E1,-8.906430602E-1,9.576807022E-1,1.108036518E1
3.874998125E1,1.379060149E0,9.097966552E-1,1.127190113E1
3.877000469E1,6.033388376E-1,-4.788403213E-2,1.002691650E1
3.879000781E1,-5.075707436E-1,-8.044517636E-1,9.528923035E0
3.881499062E1,-1.455674648E0,-7.852981687E-1,7.891288757E0
3.883998750E1,-6.895300746E-1,-8.331822157E-1,7.144298077E0
3.886000313E1,-9.672574997E-1,-2.011129409E-1,6.789956093E0
3.888500625E1,-1.110909581E0,8.714894056E-1,7.287950039E0
3.891004375E1,-1.321599364E0,1.991975784E0,7.422025204E0
3.893499844E1,-1.005564690E0,2.298433542E0,8.829815865E0
3.895999688E1,-9.576806426E-2,2.901772499E0,1.028549004E1
3.898499219E1,2.528276920E0,3.533841610E0,8.724471092E0
3.900999375E1,2.518700123E0,4.127603531E0,8.638279915E0
3.903498438E1,2.011129379E0,4.836287498E0,9.346963882E0
3.905998125E1,1.867477298E0,4.683058739E0,8.350975990E0
3.908000469E1,1.101332784E0,4.970362663E0,8.178592682E0
3.910500000E1,1.513135433E0,5.736507416E0,7.038952827E0
3.912999688E1,1.972822189E0,5.841852188E0,6.809109688E0
3.915499375E1,2.355894566E0,6.004657745E0,7.814674377E0
3.917999062E1,3.371036053E0,6.177040577E0,8.169015884E0
3.920498594E1,3.102885485E0,8.149862289E0,8.590395927E0
3.922998281E1,3.055001259E0,9.002198219E0,6.732495308E0
3.925002031E1,1.944091797E0,8.034940720E0,7.881711960E0
3.927500156E1,1.944091797E0,7.469909191E0,6.809109688E0
3.930003125E1,2.882618904E0,7.536946774E0,7.987056732E0
3.932499531E1,1.350329757E0,1.047702694E1,6.311115742E0
3.934999063E1,1.742978811E0,9.605537415E0,5.487510204E0
3.937498750E1,7.374141216E-1,6.483498096E0,5.966350555E0
3.939998281E1,7.469909191E-1,6.052541733E0,3.687070608E0
3.942000625E1,6.320692301E-1,6.426037312E0,5.085284233E0
3.944500156E1,1.532289028E0,7.977479935E0,5.803544998E0
3.947000000E1,2.279279947E0,7.316680431E0,6.713341713E0
3.949499531E1,1.647210717E0,5.995080948E0,9.203310966E0
3.951999219E1,3.265691042E0,6.454767704E0,9.203310966E0
3.954001250E1,4.548983097E0,6.742072105E0,9.892841339E0
3.956497969E1,4.501099110E0,5.832275391E0,8.322244644E0
3.958500156E1,3.179499865E0,4.740519524E0,9.998186111E0
3.961003594E1,3.792415380E0,5.142745018E0,1.202846909E1
3.963499531E1,3.246537447E0,7.316680431E0,7.584830761E0
3.965999062E1,1.819593310E0,6.406883717E0,6.933608055E0
3.968498750E1,-2.509123325E0,4.616020679E0,1.114740276E1
3.971002344E1,-2.978386879E0,2.853888512E0,1.828212357E1
3.973497969E1,9.002198577E-1,2.557007313E0,1.311064816E1
3.975500312E1,1.800439715E0,5.564124584E0,1.023760605E1
3.978000000E1,4.213795066E-1,6.033388138E0,7.718906403E0
3.980499531E1,-1.867477298E0,3.734954596E0,5.928043365E0
3.982999219E1,-3.035847664E0,4.788403511E-1,6.445190907E0
3.985498750E1,-3.179499865E0,-1.072602391E0,5.382165432E0
3.987998594E1,-3.122039080E0,-6.224924326E-1,6.129156113E0
3.990000469E1,-2.375048161E0,6.991068721E-1,6.157886982E0
3.992500312E1,-6.607996821E-1,3.639186621E-1,8.092401505E0
3.995000000E1,-4.884171486E-1,5.841852427E-1,9.318233490E0
3.997499688E1,-1.005564690E0,8.810662031E-1,1.044829655E1
3.999999531E1,-7.374141216E-1,8.140285611E-1,1.044829655E1
4.002498906E1,-1.043871999E0,1.130063176E0,9.653421402E0
4.004998594E1,-1.072602391E0,6.607996821E-1,8.762778282E0
4.007002344E1,-1.493981838E0,3.447650373E-1,8.245630264E0
4.009500469E1,-6.703764796E-1,-4.118026793E-1,8.619126320E0
4.012000156E1,-1.532289088E-1,7.661445439E-2,8.695740700E0
4.014002031E1,7.661445439E-2,9.576807022E-1,8.532935143E0
4.016498906E1,3.926490843E-1,1.580173135E0,8.619126320E0
4.018998594E1,4.309563041E-1,2.135627985E0,9.662998199E0
4.021498125E1,1.149216816E-1,3.849876404E0,9.117119789E0
4.023500313E1,9.576806426E-2,5.046977043E0,8.810662270E0
4.026000156E1,-5.746084079E-2,5.295974255E0,8.245630264E0
4.028499688E1,3.256114423E-1,5.583278179E0,9.452308655E0
4.030999375E1,2.461239338E0,7.259219646E0,8.609549522E0
4.033498906E1,2.537853718E0,7.920019150E0,8.283937454E0
4.035998594E1,2.451662540E0,7.824251175E0,7.594407558E0
4.038498281E1,2.231395960E0,6.789956093E0,7.441178799E0
4.040500469E1,1.379060149E0,7.144298077E0,7.900865555E0
4.043000156E1,1.254561663E0,8.274360657E0,7.939172745E0
4.045499688E1,1.656787634E0,8.973467827E0,7.948749542E0
4.047999531E1,2.336740971E0,8.925583839E0,7.029376030E0
4.050499063E1,2.738966703E0,7.718906403E0,6.742072105E0
4.052998750E1,2.183511972E0,6.770802498E0,6.521805286E0
4.055498281E1,2.394201756E0,7.316680431E0,6.368576527E0
4.057500625E1,2.470816135E0,7.508216381E0,6.933608055E0
4.060000312E1,2.557007313E0,7.527369976E0,7.287950039E0
4.062499844E1,2.920926094E0,7.900865555E0,8.178592682E0
4.065000156E1,3.313575268E0,7.785943985E0,8.695740700E0
4.067499219E1,2.604891539E0,6.445190907E0,7.958326340E0
4.070000938E1,2.422932148E0,5.985504150E0,8.092401505E0
4.072498438E1,2.308010340E0,6.282385349E0,8.159439087E0
4.074998438E1,1.771709204E0,7.029376030E0,7.613561630E0
4.077002500E1,1.379060149E0,7.220912457E0,7.546523571E0
4.079500000E1,1.015141487E0,6.588842869E0,8.992621422E0
4.081999531E1,1.149216771E0,6.349422932E0,1.065898609E1
4.084001250E1,1.608903527E0,6.426037312E0,9.749189377E0
4.086498438E1,1.474828243E0,6.148310184E0,7.920019150E0
4.088500625E1,3.064578176E-1,5.564124584E0,8.341399193E0
4.091000312E1,-1.369483352E0,5.046977043E0,8.743624687E0
4.093001875E1,-2.020706177E0,4.759673119E0,8.963891029E0
4.095498906E1,-8.619126081E-1,3.983951569E0,8.360552788E0
4.097998594E1,1.340752989E-1,2.250549555E0,7.843404770E0
4.100498281E1,-5.363011956E-1,1.216254473E0,8.034940720E0
4.102500469E1,-1.695094824E0,9.385270476E-1,8.647856712E0
4.105003125E1,-2.403778553E0,6.703764945E-2,9.404424667E0
4.107499844E1,-1.570596337E0,1.628057212E-1,8.638279915E0
4.110002969E1,-5.650315881E-1,6.703764796E-1,7.824251175E0
4.112499062E1,-1.053448766E-1,9.576806426E-2,7.508216381E0
4.114998750E1,-1.388636947E0,-8.714894056E-1,7.364564419E0
4.117498281E1,-2.719813108E0,-1.005564690E0,8.006210327E0
4.119500625E1,-2.882618904E0,-1.158793569E0,8.159439087E0
4.122000313E1,-2.173935175E0,-2.681505978E-1,8.293514252E0
4.124500000E1,-1.848323703E0,5.746083856E-1,7.795520782E0
4.126999688E1,-1.723825216E0,1.024718285E0,7.891288757E0
4.129499219E1,-1.647210717E0,1.149216771E0,8.216899872E0
4.132000625E1,-1.321599364E0,8.810662031E-1,8.245630264E0
4.134498438E1,-1.130063176E0,9.864110947E-1,8.322244644E0
4.136998125E1,-1.292868972E0,1.599326730E0,9.222464561E0
4.139000469E1,-5.650315881E-1,2.547430515E0,9.672574997E0
4.141500000E1,1.216254473E0,4.031835556E0,9.136273384E0
4.143999688E1,1.934514999E0,4.941632271E0,8.245630264E0
4.145999844E1,1.704671621E0,5.726930618E0,8.169015884E0
4.148498438E1,1.656787634E0,5.324704647E0,7.852981567E0
4.150500625E1,9.481038451E-1,4.673481941E0,7.594407558E0
4.153000312E1,4.788403511E-1,4.932055473E0,7.680599213E0
4.155000312E1,7.661445141E-1,6.416460514E0,7.680599213E0
4.157498906E1,2.202665567E0,8.370129585E0,7.067683220E0
4.159998906E1,2.738966703E0,8.638279915E0,6.665457726E0
4.162000469E1,2.604891539E0,8.331821442E0,7.010222435E0
4.164500469E1,2.394201756E0,8.418013573E0,8.485051155E0
4.167000156E1,2.116474390E0,8.772355080E0,1.009395409E1
4.169499844E1,2.758120298E0,9.145850182E0,8.063671112E0
4.171999531E1,3.055001259E0,8.925583839E0,6.684611320E0
4.174499062E1,2.662352324E0,8.034940720E0,6.387730122E0
4.176998750E1,2.298433542E0,7.240066051E0,7.738059998E0
4.178998750E1,2.978386879E0,7.479485989E0,8.101978302E0
4.181000156E1,2.308010340E0,7.766790390E0,7.469909191E0
4.183499688E1,2.049436569E0,7.575253963E0,6.866570473E0
4.185999375E1,1.771709204E0,7.240066051E0,6.876147270E0
4.188498906E1,1.963245392E0,6.818686485E0,6.464344501E0
4.190998906E1,1.685518026E0,6.694188118E0,7.220912457E0
4.193498281E1,1.771709204E0,7.086836815E0,8.599972725E0
4.195500625E1,1.522712231E0,7.546523571E0,8.599972725E0
4.198000156E1,1.608903527E0,6.991068840E0,8.207323074E0
4.200001719E1,1.886630893E0,6.493074894E0,8.734047890E0
4.202498906E1,2.853888512E0,5.928043365E0,8.561665535E0
4.204998906E1,2.748543501E0,6.071695328E0,9.739612579E0
4.207498125E1,1.513135433E0,6.244078159E0,9.969455719E0
4.209500469E1,6.895300746E-1,5.755661011E0,9.605537415E0
4.212000156E1,2.106897533E-1,5.181052685E0,8.944737434E0
4.214499688E1,5.458779931E-1,4.031835556E0,8.714894295E0
4.216999375E1,-3.447650373E-1,3.409343243E0,8.781931877E0
4.219498906E1,-6.320692301E-1,3.064578056E0,8.130708694E0
4.221998750E1,-2.489969730E-1,1.972822189E0,8.772355080E0
4.224498281E1,-3.830722719E-2,1.110909581E0,7.738059998E0
4.226500625E1,0.000000000E0,3.160346150E-1,8.130708694E0
4.229000156E1,-1.331176162E0,-4.979939461E-1,7.920019150E0
4.231499844E1,-1.685518026E0,-3.830722570E-1,7.872135162E0
4.233999531E1,-1.934514999E0,-7.661445141E-1,7.814674377E0
4.236499063E1,-1.216254473E0,-2.873042040E-2,7.383718014E0
4.238998750E1,-2.202665567E0,-9.959878922E-1,8.188169479E0
4.241498438E1,-2.355894566E0,-7.374141216E-1,8.293514252E0
4.243998125E1,-1.771709204E0,-1.915361285E-1,7.872135162E0
4.246000312E1,-2.643198729E0,-2.968810201E-1,7.594407558E0
4.248500000E1,-2.671929121E0,-3.256114423E-1,7.939172745E0
4.251002344E1,-1.187524080E0,-4.405331016E-1,7.125144482E0
4.253499219E1,-9.193734527E-1,3.447650373E-1,8.571242332E0
4.255998906E1,5.650315881E-1,2.173935175E0,8.973467827E0
4.257999375E1,1.091755986E0,2.777273893E0,7.977479935E0
4.260000312E1,9.864110947E-1,2.758120298E0,7.594407558E0
4.262499844E1,7.086837292E-1,2.547430515E0,9.069235802E0
4.264999531E1,1.522712231E0,2.652775526E0,9.011775017E0
4.267499062E1,1.628057122E0,3.160346270E0,8.590395927E0
4.270000469E1,1.082179189E0,5.027823448E0,8.839392662E0
4.272498438E1,1.187524080E0,6.722918510E0,8.916007042E0
4.274998125E1,1.752555609E0,7.671022415E0,8.963891029E0
4.277000312E1,2.087743998E0,7.987056732E0,7.833827972E0
4.279500000E1,1.235408068E0,7.814674377E0,7.144298077E0
4.281999688E1,6.320692301E-1,7.565677166E0,7.872135162E0
4.284499219E1,1.216254473E0,7.374141216E0,7.805097580E0
4.287002188E1,1.877054095E0,7.699752808E0,7.220912457E0
4.289498594E1,1.991975784E0,8.542511940E0,6.454767704E0
4.291998281E1,1.685518026E0,9.270348549E0,6.895300865E0
4.294001094E1,2.001552582E0,9.548076630E0,7.489062786E0
4.296500000E1,1.963245392E0,8.341399193E0,7.833827972E0
4.298999688E1,1.877054095E0,7.441178799E0,7.747636795E0
4.301499375E1,2.643198729E0,7.805097580E0,8.121131897E0
4.303999062E1,3.016694069E0,8.293514252E0,8.082824707E0
4.306498594E1,3.160346270E0,7.920019150E0,7.881711960E0
4.308998281E1,2.748543501E0,7.086836815E0,7.354987621E0
4.311003438E1,2.700659513E0,6.818686485E0,7.278373241E0
4.313500156E1,2.461239338E0,6.694188118E0,7.019799232E0
4.315999844E1,1.244984865E0,6.493074894E0,7.067683220E0
4.318499531E1,7.182605267E-1,6.780379295E0,8.063671112E0
4.320999688E1,8.523358107E-1,7.613561630E0,8.504204750E0
4.323498750E1,1.446097851E0,7.536946774E0,8.485051155E0
4.325998438E1,1.034295082E0,7.393294811E0,8.494627953E0
4.328000625E1,-9.576806799E-3,7.536946774E0,8.734047890E0
4.330500313E1,-2.489969730E-1,7.335834026E0,8.963891029E0
4.332999844E1,6.416460276E-1,5.669469833E0,9.193734169E0
4.335000938E1,7.852981687E-1,4.347870350E0,9.433155060E0
4.337498594E1,-1.915361360E-2,3.112462282E0,9.279925346E0
4.339998281E1,-6.033388376E-1,2.231395960E0,8.705317497E0
4.342000625E1,-6.224924326E-1,2.001552582E0,8.111555099E0
4.344500156E1,-5.171475410E-1,1.628057122E0,7.489062786E0
4.346999844E1,-1.436521053E0,9.672574997E-1,8.341399193E0
4.349499531E1,-1.599326730E0,-1.915361360E-2,7.651868820E0
4.352002031E1,-1.388636947E0,-6.512228847E-1,7.843404770E0
4.354498750E1,-1.810016513E0,0.000000000E0,7.785943985E0
4.356998438E1,-1.857900500E0,5.746084079E-2,7.996633530E0
4.359498125E1,-2.279279947E0,6.033388376E-1,8.781931877E0
4.361500312E1,-2.135627985E0,-4.788403213E-2,9.433155060E0
4.364000000E1,-1.675941229E0,9.959878922E-1,8.839392662E0
4.366499531E1,-1.675941229E0,7.086837292E-1,8.197746277E0
4.368999219E1,-6.991068721E-1,-1.723825186E-1,7.728483200E0
4.371498906E1,-1.493981838E0,-1.752555609E0,7.584830761E0
4.373998594E1,-1.685518026E0,-1.005564690E0,8.724471092E0
4.376498125E1,-5.746083856E-1,-1.053448766E-1,8.015787125E0
4.378500469E1,-2.202665508E-1,8.523358107E-1,8.245630264E0
4.381000000E1,3.256114423E-1,1.781286120E0,8.532935143E0
4.383499688E1,2.011129409E-1,2.394201756E0,8.676587105E0
4.385999375E1,3.639186621E-1,4.213795185E0,8.169015884E0
4.388498906E1,3.926490843E-1,4.951209068E0,8.609549522E0
4.391000625E1,2.394201756E-1,4.932055473E0,8.379706383E0
4.393498281E1,4.213795066E-1,5.018246651E0,8.676587105E0
4.395500469E1,7.948749661E-1,5.602431774E0,8.283937454E0
4.398000156E1,1.455674648E0,6.253654957E0,8.092401505E0
4.400499844E1,1.235408068E0,7.163451672E0,8.523358345E0
4.402999531E1,1.695094824E0,7.268796444E0,8.571242332E0
4.405499062E1,2.078166962E0,6.732495308E0,8.293514252E0
4.407998750E1,2.499546528E0,6.885724068E0,7.709329605E0
4.410498281E1,3.351882458E0,8.379706383E0,8.475474358E0
4.412500625E1,2.585737944E0,9.653421402E0,8.571242332E0
4.415000313E1,1.972822189E0,1.018972206E1,7.795520782E0
4.417499844E1,1.944091797E0,8.456320763E0,7.354987621E0
4.419999531E1,1.321599364E0,7.508216381E0,6.282385349E0
4.422499219E1,7.086837292E-1,6.895300865E0,6.560112476E0
4.425000000E1,7.661445141E-1,7.048529625E0,7.211335659E0
4.427498438E1,1.628057122E0,7.393294811E0,7.278373241E0
4.429998281E1,2.700659513E0,7.920019150E0,7.201758862E0
4.432000469E1,2.777273893E0,7.795520782E0,7.508216381E0
4.434500000E1,2.710236311E0,7.374141216E0,7.948749542E0
4.436999688E1,2.873042107E0,7.125144482E0,8.580819130E0
4.439499219E1,1.944091797E0,7.182605267E0,7.671022415E0
4.441999063E1,1.206677675E0,6.924031258E0,7.738059998E0
4.444498594E1,1.426944256E0,6.291962147E0,8.188169479E0
4.446998281E1,2.873041928E-1,6.493074894E0,9.605537415E0
4.449000469E1,-4.118026793E-1,7.115567684E0,8.887276649E0
4.451002969E1,1.053448766E-1,6.770802498E0,8.542511940E0
4.453499219E1,3.830722570E-1,5.669469833E0,8.877699852E0
4.455998906E1,7.661445439E-2,4.568136692E0,8.944737434E0
4.457999531E1,-3.351882398E-1,3.667917013E0,9.002198219E0
4.460000156E1,-6.129156351E-1,2.940079689E0,9.260771751E0
4.462499844E1,-6.320692301E-1,2.758120298E0,9.433155060E0
4.464999531E1,-5.075707436E-1,3.303998232E0,8.283937454E0
4.467499062E1,-7.948749661E-1,2.671929121E0,8.724471092E0
4.469998750E1,-1.513135433E0,1.139639974E0,9.519346237E0
4.472498438E1,-1.120486379E0,5.746084079E-2,9.394847870E0
4.474500625E1,-1.082179189E0,-4.022258818E-1,8.734047890E0
4.477000312E1,-7.469909191E-1,-9.576807022E-1,8.264783859E0
4.479499844E1,-6.033388376E-1,3.160346150E-1,7.996633530E0
4.481999531E1,-1.369483352E0,-3.926490843E-1,7.881711960E0
4.484499219E1,-1.321599364E0,-9.576806799E-3,7.632715225E0
4.486998906E1,-1.819593310E0,1.915361285E-1,8.063671112E0
4.489498438E1,-1.742978811E0,-2.394201756E-1,8.350975990E0
4.491998281E1,-1.264138460E0,-1.082179189E0,7.651868820E0
4.494000469E1,-1.838746905E0,-1.139639974E0,7.402871609E0
4.496500000E1,-1.484405041E0,-4.788403511E-1,6.607996464E0
4.498999688E1,-9.481038451E-1,-3.926490843E-1,6.627150536E0
4.501499375E1,-1.369483352E0,-1.340752989E-1,1.040998936E1
4.503999062E1,1.177947283E0,2.758120298E0,1.056321812E1
4.506498594E1,2.135627985E0,3.150769472E0,7.738059998E0
4.508998281E1,1.063025594E0,4.491522312E0,8.743624687E0
4.511000625E1,1.139639974E0,4.759673119E0,1.054406452E1
4.513500156E1,1.685518026E0,3.782838583E0,9.299078941E0
4.515999844E1,5.075707436E-1,3.131615877E0,7.872135162E0
4.518499375E1,-8.906430602E-1,3.581725836E0,8.303091049E0
4.521001563E1,-2.873041928E-1,5.123591423E0,8.236053467E0
4.523498594E1,1.388636947E0,7.517793179E0,8.216899872E0
4.525998438E1,2.748543501E0,9.021351814E0,7.517793179E0
4.528000625E1,1.982398987E0,8.580819130E0,7.086836815E0
4.530500313E1,9.289502501E-1,7.182605267E0,7.182605267E0
4.532503281E1,8.714894056E-1,6.789956093E0,8.379706383E0
4.535000469E1,1.762132406E0,7.709329605E0,9.385271072E0
4.537498594E1,2.509123325E0,8.983044624E0,9.011775017E0
4.540002813E1,2.461239338E0,9.145850182E0,8.504204750E0
4.542497969E1,2.499546528E0,8.609549522E0,7.383718014E0
4.544500156E1,3.026270866E0,8.331821442E0,7.326257229E0
4.546999844E1,2.978386879E0,7.862558365E0,7.671022415E0
4.549499531E1,1.972822189E0,7.173028469E0,7.536946774E0
4.551999063E1,9.385270476E-1,6.991068840E0,6.426037312E0
4.554498750E1,1.244984865E0,6.981492043E0,6.138733387E0
4.556998438E1,1.599326730E0,6.809109688E0,6.885724068E0
4.559000625E1,1.944091797E0,7.259219646E0,7.441178799E0
4.561001406E1,2.087743998E0,7.680599213E0,7.948749542E0
4.563499375E1,1.953668594E0,7.517793179E0,8.753201485E0
4.565999063E1,1.704671621E0,6.694188118E0,8.389283180E0
4.568498594E1,1.723825216E0,5.899312973E0,8.705317497E0
4.570998281E1,1.618480325E0,5.793968201E0,9.040505409E0
4.573000469E1,1.867477298E0,5.861005783E0,9.662998199E0
4.575001719E1,1.513135433E0,6.291962147E0,9.174580574E0
4.577499219E1,9.864110947E-1,6.387730122E0,9.107542992E0
4.580000781E1,4.979939461E-1,5.592854977E0,8.868123055E0
4.582502500E1,2.873042040E-2,3.303998232E0,8.379706383E0
4.584998281E1,-6.033388376E-1,2.087743998E0,8.437167168E0
4.587000469E1,-1.407790542E0,2.116474390E0,8.801085472E0
4.589500000E1,-1.436521053E0,3.016694069E0,9.519346237E0
4.591999688E1,-8.236053586E-1,2.202665567E0,9.346963882E0
4.594499375E1,-8.044517636E-1,1.608903527E0,9.145850182E0
4.596999062E1,-5.075707436E-1,1.053448796E0,9.538499832E0
4.599498594E1,-5.937620401E-1,7.757213712E-1,9.107542992E0
4.601998281E1,-6.033388376E-1,3.830722570E-1,7.872135162E0
4.604000625E1,-1.905784607E0,7.661445439E-2,7.536946774E0
4.606500156E1,-3.179499865E0,-2.777273953E-1,6.732495308E0
4.609000000E1,-2.700659513E0,-1.407790542E0,6.627150536E0
4.611001875E1,-2.518700123E0,-1.656787634E0,6.962338448E0
4.613498438E1,-1.953668594E0,-1.015141487E0,6.895300865E0
4.615998750E1,-1.829170108E0,-6.703764796E-1,7.632715225E0
4.618000469E1,-1.474828243E0,-6.512228847E-1,8.408436775E0
4.620500000E1,-4.596867263E-1,-5.650315881E-1,8.561665535E0
4.622999844E1,1.149216816E-1,4.022258818E-1,8.906430244E0
4.625499375E1,1.436520964E-1,1.379060149E0,9.461885452E0
4.627999062E1,6.033388376E-1,2.317587137E0,9.528923035E0
4.630000469E1,7.757213712E-1,3.179499865E0,8.772355080E0
4.632000469E1,1.158793569E0,2.834734917E0,9.825803757E0
4.634500000E1,1.340752989E-1,3.294421434E0,7.862558365E0
4.637001406E1,7.661445439E-2,3.447650433E0,8.427590370E0
4.639499219E1,-1.244984865E-1,4.548983097E0,8.599972725E0
4.641998906E1,4.213795066E-1,5.267243862E0,7.757213593E0
4.644000313E1,1.273715258E0,4.750096321E0,7.948749542E0
4.646000312E1,2.011129379E0,4.778826714E0,8.188169479E0
4.648499844E1,2.394201756E0,5.592854977E0,8.130708694E0
4.650999531E1,2.806004286E0,7.489062786E0,7.872135162E0
4.653499219E1,1.359906554E0,9.318233490E0,8.283937454E0
4.655998906E1,1.264138460E0,9.969455719E0,9.356540680E0
4.658498438E1,2.758120298E0,8.389283180E0,7.680599213E0
4.661000313E1,2.710236311E0,6.962338448E0,7.010222435E0
4.663000469E1,2.164358377E0,6.742072105E0,6.828263283E0
4.665500000E1,1.484405041E0,6.732495308E0,7.718906403E0
4.667999688E1,1.541865945E0,7.805097580E0,8.111555099E0
4.670499219E1,2.269703150E0,8.829815865E0,7.920019150E0
4.672998906E1,2.738966703E0,8.848969460E0,7.383718014E0
4.674999062E1,2.911349297E0,7.489062786E0,7.374141216E0
4.677000312E1,2.078166962E0,7.220912457E0,7.747636795E0
4.679000938E1,1.905784607E0,7.374141216E0,7.230489254E0
4.681499062E1,1.819593310E0,7.833827972E0,7.354987621E0
4.683998750E1,1.685518026E0,7.603984833E0,7.479485989E0
4.686000625E1,1.264138460E0,7.192182064E0,7.220912457E0
4.688500469E1,7.565677166E-1,6.837840080E0,7.182605267E0
4.691000156E1,2.193088770E0,6.856993675E0,8.197746277E0
4.693499844E1,2.106897593E0,6.521805286E0,8.734047890E0
4.695999531E1,1.101332784E0,5.889736176E0,8.188169479E0
4.698499062E1,9.672574997E-1,5.410895824E0,9.442731857E0
4.700998750E1,1.283292055E0,5.295974255E0,1.001733971E1
4.703498281E1,1.369483352E0,4.989516258E0,9.394847870E0
4.705500625E1,6.416460276E-1,4.999093056E0,9.624691010E0
4.708000313E1,3.160346150E-1,5.161899090E0,9.797073364E0
4.710499844E1,-3.830722719E-2,4.884171486E0,9.145850182E0
4.712999531E1,-6.033388376E-1,4.261679173E0,8.101978302E0
4.715499219E1,-1.235408068E0,3.715801001E0,8.054094315E0
4.717998906E1,-1.963245392E0,1.867477298E0,8.264783859E0
4.720498438E1,-2.164358377E0,-4.884171486E-1,8.801085472E0
4.722998281E1,-1.714248419E0,7.469909191E-1,8.638279915E0
4.725000469E1,-1.465251446E0,1.024718285E0,8.714894295E0
4.727500000E1,-1.072602391E0,-5.075707436E-1,7.450755596E0
4.729999688E1,-1.608903527E0,-1.905784607E0,7.814674377E0
4.732501719E1,-1.340752959E0,-1.924938202E0,8.054094315E0
4.734998906E1,-1.187524080E0,-7.661445141E-1,8.561665535E0
4.737498594E1,-1.043871999E0,5.746084079E-2,8.121131897E0
4.739998125E1,-1.503558636E0,-6.703764945E-2,7.718906403E0
4.742000469E1,-1.599326730E0,-7.278373241E-1,7.766790390E0
4.744500156E1,-1.695094824E0,-1.302445769E0,8.006210327E0
4.746999844E1,-9.385270476E-1,-8.523358107E-1,7.833827972E0
4.749499375E1,-5.650315881E-1,1.915361360E-2,8.312667847E0
4.751999063E1,1.723825186E-1,6.799532771E-1,9.557653427E0
4.754002969E1,3.064578176E-1,1.503558636E0,9.557653427E0
4.756497812E1,1.532289088E-1,3.284844637E0,9.193734169E0
4.758500000E1,5.937620401E-1,4.395754337E0,9.059659004E0
4.760999844E1,4.022258818E-1,4.261679173E0,8.437167168E0
4.763499375E1,6.129156351E-1,3.246537447E0,8.255207062E0
4.765998906E1,1.024718285E0,2.719813108E0,7.843404770E0
4.768498594E1,9.576807022E-1,4.031835556E0,8.283937454E0
4.771002812E1,1.647210717E0,5.928043365E0,8.130708694E0
4.773497969E1,1.580173135E0,6.837840080E0,8.389283180E0
4.775500156E1,1.292868972E0,7.029376030E0,8.523358345E0
4.777999844E1,1.302445769E0,7.316680431E0,8.523358345E0
4.780499531E1,1.522712231E0,7.948749542E0,8.149862289E0
4.783000469E1,1.254561663E0,9.021351814E0,8.226476669E0
4.785001250E1,1.455674648E0,9.232041359E0,8.350975990E0
4.787497813E1,2.030282974E0,8.437167168E0,8.552088737E0
4.789500000E1,2.652775526E0,7.192182064E0,7.891288757E0
4.791999688E1,3.179499865E0,6.828263283E0,7.556100368E0
4.794499375E1,3.734954596E0,8.082824707E0,7.067683220E0
4.796999062E1,2.959233284E0,8.781931877E0,7.115567684E0
4.799498594E1,1.015141487E0,8.245630264E0,6.646304131E0
4.801998281E1,-1.628057212E-1,7.297526836E0,6.339846134E0
4.804000469E1,-7.661445439E-2,6.924031258E0,6.416460514E0
4.806500156E1,1.379060149E0,6.952761650E0,7.163451672E0
4.808999844E1,2.394201756E0,7.326257229E0,7.450755596E0
4.811499375E1,2.327163935E0,7.642292023E0,7.335834026E0
4.813999062E1,1.934514999E0,7.795520782E0,8.686163902E0
4.816498750E1,2.557007313E0,7.431602001E0,9.021351814E0
4.818998281E1,2.624045134E0,6.521805286E0,9.097966194E0
4.821000625E1,1.474828243E0,6.129156113E0,7.967903137E0
4.823500156E1,4.979939461E-1,6.081272125E0,8.638279915E0
4.826003438E1,6.607996821E-1,5.947196960E0,8.714894295E0
4.828499531E1,4.405331016E-1,5.793968201E0,8.389283180E0
4.830999219E1,-4.788403213E-2,4.903325081E0,8.791508675E0
4.832999531E1,-3.351882398E-1,4.730942726E0,8.647856712E0
4.835000469E1,-4.118026793E-1,4.118026733E0,8.647856712E0
4.837500156E1,-7.948749661E-1,3.533841610E0,9.586383820E0
4.840000000E1,-2.585737705E-1,2.987963676E0,8.944737434E0
4.842499375E1,5.746084079E-2,3.246537447E0,8.389283180E0
4.844999063E1,-5.841852427E-1,2.834734917E0,8.954314232E0
4.847498750E1,-9.672574997E-1,5.554547906E-1,8.877699852E0
4.849998750E1,-1.829170108E0,-5.650315881E-1,8.590395927E0
4.852000625E1,-1.857900500E0,5.267243981E-1,8.121131897E0
4.854500156E1,-9.864110947E-1,5.075707436E-1,8.130708694E0
4.857000000E1,-2.164358377E0,3.734954596E-1,7.603984833E0
4.859499531E1,-1.359906554E0,-9.768342972E-1,7.814674377E0
4.861999219E1,-1.101332784E0,-1.790862918E0,6.943184853E0
4.864498906E1,-1.388636947E0,-1.283292055E0,8.159439087E0
4.866998438E1,-4.692635238E-1,-8.044517636E-1,8.082824707E0
4.869498125E1,-9.864110947E-1,-8.044517636E-1,8.925583839E0
4.871500312E1,-8.523358107E-1,-6.703764945E-2,9.126696587E0
4.874000156E1,-1.082179189E0,2.394201756E-1,9.165003777E0
4.876499688E1,-7.086837292E-1,8.810662031E-1,8.983044624E0
4.878999375E1,-1.312022567E0,2.049436569E0,8.724471092E0
4.881498906E1,-7.948749661E-1,2.710236311E0,7.661445618E0
4.883998594E1,-6.320692301E-1,2.355894566E0,8.408436775E0
4.886498281E1,-2.777273953E-1,2.633621931E0,8.906430244E0
4.888500469E1,7.278373241E-1,2.595314741E0,8.025363922E0
4.891000312E1,1.312022567E0,3.514688015E0,7.872135162E0
4.893499688E1,2.078166962E0,5.602431774E0,8.647856712E0
4.896001406E1,2.844311714E0,6.962338448E0,8.705317497E0
4.898499062E1,2.547430515E0,7.431602001E0,7.852981567E0
4.900999062E1,7.852981687E-1,7.517793179E0,8.743624687E0
4.902999375E1,9.385270476E-1,7.441178799E0,9.078812599E0
4.905000000E1,1.503558636E0,7.441178799E0,8.896853447E0
4.907499688E1,2.422932148E0,7.565677166E0,8.044517517E0
4.910001406E1,2.193088770E0,7.929595947E0,6.914454460E0
4.912498906E1,1.024718285E0,8.676587105E0,6.914454460E0
4.915001719E1,7.948749661E-1,9.212887764E0,7.268796444E0
4.917498281E1,1.177947283E0,8.437167168E0,6.636727333E0
4.919500469E1,1.082179189E0,7.354987621E0,6.033388138E0
4.922000156E1,1.197100878E0,7.058106422E0,6.330269337E0
4.924003906E1,1.369483352E0,7.738059998E0,7.211335659E0
4.926498750E1,2.375048161E0,8.475474358E0,8.427590370E0
4.928998594E1,3.150769472E0,8.954314232E0,8.619126320E0
4.931498281E1,3.246537447E0,8.312667847E0,7.153874874E0
4.933500312E1,2.633621931E0,7.249642849E0,6.837840080E0
4.936000156E1,1.637633920E0,5.803544998E0,7.010222435E0
4.938499688E1,1.110909581E0,6.502651691E0,7.594407558E0
4.941000625E1,9.289502501E-1,7.632715225E0,8.427590370E0
4.943000781E1,7.469909191E-1,7.671022415E0,8.494627953E0
4.945498125E1,4.979939461E-1,7.058106422E0,8.868123055E0
4.947500312E1,1.139639974E0,6.291962147E0,8.178592682E0
4.950000000E1,1.292868972E0,5.315127850E0,8.590395927E0
4.952001406E1,1.005564690E0,5.133168221E0,9.050082207E0
4.954498594E1,6.703764796E-1,5.046977043E0,9.548076630E0
4.956998281E1,5.458779931E-1,4.778826714E0,9.232041359E0
4.959002656E1,4.405331016E-1,4.740519524E0,8.820239067E0
4.961004062E1,2.873042040E-2,4.635174274E0,9.404424667E0
4.963499219E1,-5.171475410E-1,4.424484730E0,8.887276649E0
4.966001250E1,-6.416460276E-1,3.495534420E0,8.906430244E0
4.968498594E1,-1.321599364E0,2.231395960E0,8.475474358E0
4.971001719E1,-2.173935175E0,1.388636947E0,8.619126320E0
4.973497813E1,-2.154781580E0,3.639186621E-1,8.264783859E0
4.975500156E1,-2.049436569E0,-3.064578176E-1,8.149862289E0
4.977999844E1,-1.666364431E0,-5.746084079E-2,8.322244644E0
4.980499375E1,-7.374141216E-1,2.585737705E-1,7.220912457E0
4.982999062E1,-8.140285611E-1,-3.543418646E-1,7.469909191E0
4.985498594E1,-9.672574997E-1,-2.106897533E-1,7.824251175E0
4.987998281E1,-1.790862918E0,-3.830722719E-2,7.881711960E0
4.990000469E1,-1.790862918E0,-3.734954596E-1,8.398859978E0
4.992500156E1,-7.757213712E-1,-6.416460276E-1,8.580819130E0
4.995000156E1,-4.309563041E-1,-1.206677675E0,8.236053467E0
4.997499531E1,-1.312022567E0,-2.777273953E-1,8.063671112E0
4.999999375E1,-1.838746905E0,1.139639974E0,8.475474358E0
5.002498750E1,-1.398213744E0,1.628057122E0,9.232041359E0
5.004999688E1,-4.501099288E-1,1.656787634E0,8.360552788E0
5.007498125E1,9.576806426E-2,2.288856745E0,8.657433510E0
5.009500313E1,2.394201756E-1,3.064578056E0,9.069235802E0
5.012000000E1,9.097966552E-1,3.773261786E0,8.695740700E0
5.014499531E1,9.672574997E-1,4.424484730E0,7.776367188E0
5.016999375E1,8.906430602E-1,4.817133904E0,8.149862289E0
5.019498906E1,1.177947283E0,5.822698593E0,8.676587105E0
5.021998594E1,1.618480325E0,7.153874874E0,8.647856712E0
5.024498125E1,2.413355350E0,7.623138428E0,7.833827972E0
5.026500312E1,2.451662540E0,7.565677166E0,7.939172745E0
5.029000156E1,2.221819162E0,7.134721279E0,8.418013573E0
5.031499688E1,1.541865945E0,7.508216381E0,7.852981567E0
5.033999375E1,5.458779931E-1,8.207323074E0,7.651868820E0
5.036498906E1,9.768342972E-1,8.887276649E0,8.111555099E0
