"Time (s)","Gyroscope x (rad/s)","Gyroscope y (rad/s)","Gyroscope z (rad/s)"
1.649953120E-1,5.402492046E0,-1.088561893E0,0.000000000E0
1.899906250E-1,5.402492046E0,-1.088561893E0,0.000000000E0
2.100046870E-1,-1.363451242E0,-5.131268129E-2,-9.395107627E-1
2.300046870E-1,-1.226617336E0,-2.089159042E-1,-8.552113175E-1
2.550000000E-1,-1.069014192E0,-7.782422900E-1,-7.611380816E-1
2.799984370E-1,-9.847147465E-1,-9.101892114E-1,-6.719517708E-1
3.000234370E-1,-1.009149313E0,-7.794640660E-1,-4.789183438E-1
3.249843750E-1,-1.198517561E0,-3.543018401E-1,-3.799581826E-1
3.499812500E-1,-1.422094226E0,-3.714060783E-1,-3.530800939E-1
3.700250000E-1,-1.387885809E0,-1.844813079E-1,-2.651154995E-1
3.950000000E-1,-1.204626203E0,-2.186897546E-1,-3.347541392E-1
4.199968750E-1,-1.188743711E0,-5.546656251E-1,-3.726277947E-1
4.449937500E-1,-1.143539667E0,-3.885102868E-1,-1.991420686E-1
4.699906250E-1,-9.957103133E-1,-3.408628106E-1,4.886921961E-3
4.949859370E-1,-8.564330339E-1,-6.963863969E-2,3.200933933E-1
5.199906250E-1,-5.448917747E-1,-2.577851415E-1,4.092797041E-1
5.400031250E-1,-4.886921942E-1,-1.099557430E-2,4.300491214E-1
5.600031250E-1,-4.459316134E-1,8.918632567E-2,4.105014503E-1
5.849921870E-1,-3.408628106E-1,2.309070528E-1,2.382374406E-1
6.099875000E-1,-4.288274050E-1,-2.199114859E-2,-4.153883457E-2
6.349843750E-1,-5.241223574E-1,-4.801400900E-1,-1.893682182E-1
6.599828120E-1,-5.424483418E-1,-5.461135507E-1,-1.649336070E-1
6.800046870E-1,-7.000515461E-1,-5.131267905E-1,-1.062905490E-1
7.050000000E-1,-6.817256212E-1,-7.904596329E-1,-1.026253626E-1
7.300109370E-1,-5.082398653E-1,-1.225395679E0,-2.565634064E-2
7.549921870E-1,-4.153883457E-1,-1.626123309E0,-7.086037099E-2
7.799906250E-1,-7.293730974E-1,-1.561371565E0,-2.101376355E-1
8.049843750E-1,-4.862487316E-1,1.295034289E-1,-3.897320330E-1
8.250218750E-1,-3.017674387E-1,4.056145251E-1,-4.813618064E-1
8.500218750E-1,-8.918632567E-2,8.393288255E-1,-4.630358517E-1
8.750015620E-1,3.726277947E-1,9.773843884E-1,-3.726277947E-1
9.000015620E-1,6.511823535E-1,1.453859210E-1,-3.640756905E-1
9.249953120E-1,8.087855577E-1,-1.120326877E0,-4.105014503E-1
9.499890620E-1,5.143485069E-1,-1.937664509E0,-5.632177591E-1
9.749875000E-1,-1.588249579E-2,-2.327396631E0,-5.302309990E-1
9.999843750E-1,1.160643920E-1,-1.802052498E0,-4.495968223E-1
1.020006250E0,2.345722467E-1,-8.784242272E-1,-5.424483418E-1
1.045001562E0,5.253440738E-1,-1.881464869E-1,-8.087855577E-1
1.070000000E0,9.004153609E-1,1.258382350E-1,-4.544837475E-1
1.094995312E0,9.541714787E-1,-2.565633953E-1,-2.345722467E-1
1.119992187E0,6.646213531E-1,-8.038986325E-1,-1.783726513E-1
1.144987500E0,5.180137157E-1,-1.126435518E0,8.307766914E-2
1.169985937E0,4.178318083E-1,-1.525941372E0,1.844813079E-1
1.194981250E0,1.148426607E-1,-1.419650793E0,-2.443460980E-3
1.215003125E0,1.380555481E-1,-9.517280459E-1,1.954768784E-2
1.240000000E0,4.178318083E-1,-8.246680498E-1,3.775147200E-1
1.264995312E0,5.974261761E-1,-5.473352671E-1,8.539896011E-1
1.289993750E0,3.933972120E-1,-7.342600226E-1,1.020144939E0
1.314989062E0,3.127630055E-1,-1.062905550E0,9.688322544E-1
1.339985937E0,4.532620013E-1,-1.286482215E0,1.054353356E0
1.360010937E0,5.473352671E-1,-1.285260439E0,9.553932548E-1
1.385004687E0,7.709119320E-1,-9.285151362E-1,1.026253581E0
1.410028125E0,8.515461683E-1,-2.993239760E-1,8.833111525E-1
1.434996875E0,1.032362223E0,-3.445279896E-1,9.040805697E-1
1.459995312E0,9.517280459E-1,-7.538077235E-1,7.806857824E-1
1.484990625E0,1.027475357E0,-1.048244715E0,4.850269854E-1
1.509985937E0,1.044579506E0,-9.920451641E-1,1.123992056E-1
1.534982812E0,9.737191796E-1,-6.169738770E-1,-3.885102868E-1
1.555004687E0,1.016479731E0,-6.646213531E-1,-5.876523852E-1
1.580003125E0,8.698720932E-1,-5.461135507E-1,-6.585127115E-1
1.604998437E0,6.560692787E-1,-8.857545853E-1,-6.609562039E-1
1.629995312E0,5.571091175E-1,-8.820893764E-1,-7.073819637E-1
1.650004687E0,6.682865620E-1,-9.114109278E-1,-9.150761366E-1
1.674982812E0,6.963863969E-1,-1.003040671E0,-1.210734844E0
1.695004687E0,5.913175344E-1,-8.539896011E-1,-1.292590857E0
1.720001562E0,5.485569835E-1,-8.808676600E-1,-1.268156171E0
1.744996875E0,6.585127115E-1,-7.953465581E-1,-1.116661668E0
1.769993750E0,8.686503768E-1,-4.996877611E-1,-8.393288255E-1
1.794990625E0,7.000515461E-1,-4.361577928E-1,-6.792821288E-1
1.819987500E0,7.941247821E-1,-5.998696685E-1,-4.031710625E-1
1.844982812E0,6.572909951E-1,-1.029918790E0,-1.099557430E-1
1.865004687E0,7.990117073E-1,-1.066570759E0,-1.221730490E-3
1.890003125E0,9.737191796E-1,-8.197811246E-1,-1.747074574E-1
1.910035937E0,1.056796908E0,-6.707300544E-1,-1.795943826E-1
1.934989062E0,8.845328689E-1,-2.956587672E-1,-2.968805134E-1
1.959985937E0,1.031140566E0,-5.864306167E-2,-3.457497358E-1
1.984981250E0,1.048244715E0,3.738495111E-1,-3.481931984E-1
2.005004687E0,1.018923163E0,4.667010307E-1,-3.616322279E-1
2.030001562E0,8.539896011E-1,3.811798990E-1,-2.419026345E-1
2.054996875E0,4.776966274E-1,-2.321287990E-2,-1.429424584E-1
2.079995312E0,3.555235565E-1,-1.771509200E-1,-2.834414840E-1
2.104990625E0,2.565633953E-1,-4.410446882E-1,-2.993239760E-1
2.130014062E0,2.626720369E-1,-5.473352671E-1,-3.762929738E-1
2.154984375E0,2.321287990E-2,-4.166100919E-1,-4.764748812E-1
2.175006250E0,8.552113548E-3,-2.590068579E-1,-4.251621962E-1
2.200004687E0,1.026253626E-1,-2.223549485E-1,-5.057964325E-1
2.224998437E0,1.857030392E-1,-2.260201424E-1,-5.791002512E-1
2.249993750E0,-6.108652335E-3,-2.614503205E-1,-7.049384713E-1
2.270001562E0,-1.380555481E-1,-2.247984111E-1,-6.633996367E-1
2.294982812E0,-1.111774743E-1,-6.414085031E-1,-4.948008358E-1
2.315004687E0,-2.675589621E-1,-6.792821288E-1,-4.740314186E-1
2.340001562E0,-3.775147200E-1,-7.684684396E-1,-5.522221923E-1
2.364996875E0,-1.001819000E-1,-6.817256212E-1,-5.216789246E-1
2.389995312E0,-4.398229718E-2,-5.338962078E-1,-5.290092826E-1
2.414990625E0,1.514945775E-1,-4.654793143E-1,-5.094615817E-1
2.439987500E0,3.481931984E-1,-5.681046844E-1,-4.434881508E-1
2.464982812E0,3.824016452E-1,-5.937610269E-1,-4.459316134E-1
2.485006250E0,2.675589621E-1,-5.632177591E-1,-4.948008358E-1
2.510003125E0,-2.272418737E-1,-4.703662395E-1,-4.801400900E-1
2.534998437E0,-7.281513810E-1,-4.251621962E-1,-4.899139106E-1
2.559995312E0,-5.583308339E-1,-5.583308339E-1,-5.729916096E-1
2.580012500E0,-3.591887653E-1,-4.483750761E-1,-5.558873415E-1
2.604982812E0,-3.139847219E-1,-4.447098970E-1,-3.139847219E-1
2.625004687E0,-3.579670191E-1,-4.153883457E-1,-2.333505154E-1
2.650001562E0,-5.681046844E-1,-3.946189284E-1,-2.028072625E-1
2.674998437E0,-7.953465581E-1,-1.771509200E-1,-3.799581826E-1
2.700003125E0,-6.450737119E-1,-1.441641897E-1,-5.852088928E-1
2.724990625E0,-4.911356568E-1,-2.467895597E-1,-5.277875662E-1
2.749985937E0,-4.776966274E-1,-3.543018550E-2,-4.007275999E-1
2.769987500E0,-5.962044597E-1,2.419026345E-1,-4.703662395E-1
2.790000000E0,-5.338962078E-1,6.597344577E-2,-5.351179242E-1
2.814996875E0,-3.054326177E-1,-2.113593668E-1,-4.813618064E-1
2.839993750E0,-3.054326177E-1,-2.345722467E-1,-4.337143302E-1
2.864989062E0,-3.481931984E-1,-6.108652428E-2,-3.921754956E-1
2.889987500E0,-5.839871764E-1,5.986479297E-2,-3.518583775E-1
2.914982812E0,-8.710938096E-1,1.087340117E-1,-4.214970171E-1
2.935004687E0,-9.175195694E-1,2.431243658E-1,-4.899139106E-1
2.960001562E0,-8.955284357E-1,2.761110961E-1,-5.644394755E-1
2.984998437E0,-7.929030657E-1,4.214970171E-1,-5.949827433E-1
3.009995312E0,-7.611380816E-1,1.991420686E-1,-5.143485069E-1
3.034990625E0,-5.497786999E-1,1.820378453E-1,-3.958406746E-1
3.059987500E0,-5.082398653E-1,1.050688177E-1,-3.103195429E-1
3.084982812E0,-6.267477274E-1,1.966986060E-1,-2.480112910E-1
3.105006250E0,-8.564330339E-1,4.153883457E-1,-2.321287990E-2
3.130003125E0,-9.932668805E-1,5.424483418E-1,1.087340117E-1
3.150004687E0,-9.395107627E-1,5.424483418E-1,1.221730486E-1
3.174989062E0,-8.662068844E-1,5.656611919E-1,1.221730467E-2
3.199985937E0,-8.442157507E-1,7.318165302E-1,-1.453859210E-1
3.224982812E0,-1.062905550E0,5.888741016E-1,-2.504547536E-1
3.245004687E0,-1.078788042E0,1.979203373E-1,-1.734857261E-1
3.270001562E0,-1.115439892E0,-4.520402849E-2,-1.319468915E-1
3.294998437E0,-1.088561893E0,4.520402849E-2,-1.246165112E-1
3.319995312E0,-1.144761443E0,3.897320330E-1,-1.539380401E-1
3.340015625E0,-1.158200502E0,5.338962078E-1,-2.003637999E-1
3.364981250E0,-1.304808140E0,6.047565937E-1,-2.382374406E-1
3.385004687E0,-1.488067746E0,3.665191531E-1,-2.565633953E-1
3.410001562E0,-1.384220600E0,3.420845270E-1,-2.419026345E-1
3.434996875E0,-1.259604096E0,7.831292152E-1,-1.136209369E-1
3.459993750E0,-1.309695125E0,3.970623910E-1,-1.588249654E-1
3.484989062E0,-1.102000833E0,2.712241709E-1,4.276056588E-2
3.510017187E0,-9.639453292E-1,3.933972120E-1,1.246165112E-1
3.534982812E0,-9.578366876E-1,3.677408695E-1,4.031710699E-2
3.555004687E0,-9.248499870E-1,1.710422635E-1,9.773843922E-3
3.580003125E0,-8.271115422E-1,7.208209485E-2,-1.832595654E-2
3.600012500E0,-7.525859475E-1,1.918116808E-1,4.886921868E-2
3.624989062E0,-5.815436840E-1,-1.319468915E-1,1.832595654E-2
3.649985937E0,-5.485569835E-1,-2.577851415E-1,-4.886921961E-3
3.674982812E0,-4.007275999E-1,-1.576032341E-1,-8.307766914E-2
3.695003125E0,-3.518583775E-1,-8.185594529E-2,-1.404990107E-1
3.720001562E0,-2.602286041E-1,-1.747074574E-1,-1.893682182E-1
3.744996875E0,-3.176499158E-2,-3.139847219E-1,-1.368338168E-1
3.769993750E0,1.295034289E-1,-3.457497358E-1,-1.722639948E-1
3.794989062E0,2.480112910E-1,-8.674286306E-2,-1.795943826E-1
3.819985937E0,2.272418737E-1,-2.076941729E-2,-3.005456924E-1
3.844982812E0,6.047565937E-1,1.844813079E-1,-1.588249654E-1
3.865004687E0,5.546656251E-1,-9.162978828E-2,-2.993239760E-1
3.890003125E0,5.338962078E-1,-3.152064681E-1,-3.799581826E-1
3.914998437E0,7.147123218E-1,-3.347541392E-1,-1.869247556E-1
3.939995312E0,6.646213531E-1,-4.850269854E-1,-1.637118906E-1
3.964990625E0,8.405505419E-1,-3.457497358E-1,-5.619960278E-2
3.989987500E0,6.267477274E-1,-4.642575681E-1,-1.502728462E-1
4.014984375E0,9.395107627E-1,-4.789183438E-1,-9.040805697E-2
4.039981250E0,1.072679400E0,-3.433062732E-1,-1.808161139E-1
4.060003125E0,1.116661668E0,-4.080579877E-1,-2.394591719E-1
4.085000000E0,1.177748203E0,-6.243042946E-1,2.932153083E-2
4.110015625E0,1.143539667E0,-7.159340382E-1,5.290092826E-1
4.134992187E0,1.147204876E0,-3.188716471E-1,8.943067193E-1
4.160012500E0,1.112996459E0,-4.752531648E-1,8.161159754E-1
4.184984375E0,1.295034289E0,-2.223549485E-1,7.525859475E-1
4.209996875E0,1.370781541E0,-4.031710625E-1,7.208209634E-1
4.230003125E0,1.572367072E0,-3.750712574E-1,7.305948138E-1
4.255000000E0,1.601688623E0,-6.841690540E-1,7.220426798E-1
4.279998437E0,1.628566742E0,-4.300491214E-1,5.852088928E-1
4.300018750E0,1.538158655E0,-4.068362415E-1,5.021312237E-1
4.325006250E0,1.330464482E0,-1.747074574E-1,3.506366313E-1
4.349981250E0,1.332907915E0,-3.323106766E-1,2.064724565E-1
4.370009375E0,1.362229466E0,-3.555235565E-1,3.176499158E-2
4.395000000E0,1.159422159E0,-3.457497358E-1,-4.398229718E-2
4.419995312E0,8.613199592E-1,-2.419026345E-1,-4.276056588E-2
4.444992187E0,7.623597980E-1,-4.776966274E-1,-1.050688177E-1
4.469989062E0,8.026769161E-1,-3.420845270E-1,-1.820378453E-1
4.494985937E0,7.489207983E-1,-3.176499307E-1,-3.274237812E-1
4.519982812E0,8.112290502E-1,-3.066543341E-1,-2.675589621E-1
4.540004687E0,6.560692787E-1,-1.942551434E-1,-2.467895597E-1
4.565000000E0,7.281513810E-1,-9.773843735E-2,-2.394591719E-1
4.589996875E0,7.696902156E-1,-1.502728462E-1,-1.808161139E-1
4.610003125E0,7.476990223E-1,-2.809980214E-1,-1.014036313E-1
4.634984375E0,7.855727077E-1,-2.321287841E-1,-9.773843735E-2
4.659981250E0,6.524040699E-1,-2.675589621E-1,-1.343903542E-1
4.680003125E0,5.583308339E-1,-3.665191308E-2,-1.710422635E-1
4.705000000E0,4.789183438E-1,5.131268129E-2,-1.539380401E-1
4.729996875E0,4.166100919E-1,-7.208209485E-2,-2.003637999E-1
4.754992187E0,1.380555481E-1,-2.724458873E-1,-2.785545588E-1
4.779989062E0,-1.466076523E-1,-1.270599663E-1,-3.359758854E-1
4.804985937E0,-4.239404798E-1,-1.099557430E-1,-4.862487316E-1
4.829982812E0,-5.277875662E-1,-1.172861233E-1,-4.471533597E-1
4.850028125E0,-5.277875662E-1,-1.747074574E-1,-3.371976018E-1
4.875000000E0,-3.213151097E-1,-9.529497474E-2,-1.844813079E-1
4.899998437E0,-9.896016866E-2,2.467895597E-1,-1.307251602E-1
4.924993750E0,-1.710422635E-1,2.651154995E-1,-2.932153083E-2
4.950031250E0,-6.426302195E-1,3.628539443E-1,3.420845419E-2
4.974985937E0,-8.539896011E-1,3.457497358E-1,-4.764748737E-2
5.000014062E0,-6.352998614E-1,1.661553383E-1,8.063421398E-2
5.024979687E0,-2.663372457E-1,-1.062905490E-1,2.382374406E-1
5.045001562E0,-8.674286306E-2,1.954768784E-2,2.834414840E-1
5.070023437E0,-1.270599663E-1,4.373795092E-1,3.286454976E-1
5.094995312E0,-3.433062732E-1,6.829473376E-1,2.956587672E-1
5.119990625E0,-6.230825186E-1,6.853907704E-1,1.331686229E-1
5.144987500E0,-9.407324791E-1,4.923573732E-1,1.148426607E-1
5.169984375E0,-1.084896684E0,5.302309990E-1,1.038470864E-1
5.190007812E0,-9.492845535E-1,3.933972120E-1,1.881464869E-1
5.215003125E0,-7.831292152E-1,7.110471129E-1,2.553416789E-1
5.240010937E0,-8.124507666E-1,1.159422159E0,2.602286041E-1
5.264995312E0,-1.141096234E0,1.400103092E0,1.551597714E-1
5.289992187E0,-1.192408919E0,1.303586364E0,1.026253626E-1
5.314989062E0,-1.149648428E0,7.574728727E-1,9.285151958E-2
5.339985937E0,-1.182635069E0,2.113593668E-1,7.696902007E-2
5.364981250E0,-1.268156171E0,2.089159042E-1,1.563815027E-1
5.385003125E0,-1.350012183E0,1.539380401E-1,6.352998316E-2
5.410001562E0,-1.459967971E0,1.881464869E-1,-1.246165112E-1
5.434996875E0,-1.348790407E0,7.929030657E-1,6.108652335E-3
5.459993750E0,-1.332907915E0,9.419541955E-1,-2.687807009E-2
5.484989062E0,-1.370781541E0,1.142318010E0,3.543018550E-2
5.509992187E0,-1.323134065E0,9.114109278E-1,-1.014036313E-1
5.534982812E0,-1.385442376E0,6.597344279E-1,-2.761110961E-1
5.555004687E0,-1.341460109E0,6.096435189E-1,-1.307251602E-1
5.580001562E0,-1.246165037E0,6.169738770E-1,-5.986479297E-2
5.604998437E0,-1.334129691E0,2.773328125E-1,-9.285151958E-2
5.630028125E0,-1.616349459E0,3.860668242E-1,-1.490511149E-1
5.654990625E0,-1.582140923E0,4.911356568E-1,3.420845419E-2
5.679987500E0,-1.233947754E0,5.448917747E-1,5.009094998E-2
5.699993750E0,-8.173376918E-1,8.087855577E-1,5.742133036E-2
5.720001562E0,-5.534439087E-1,6.328563690E-1,3.176499158E-2
5.744996875E0,-7.086036801E-1,-3.310889602E-1,-4.642575979E-2
5.770031250E0,-6.328563690E-1,-6.658431292E-1,-5.619960278E-2
5.794989062E0,-2.394591719E-1,-7.452555895E-1,1.087340117E-1
5.819985937E0,2.162462920E-1,-8.234463334E-1,5.009094998E-2
5.839987500E0,2.748893499E-1,-6.279694438E-1,-2.443460934E-2
5.860000000E0,3.420845270E-1,-4.227187335E-1,7.330382615E-2
5.884995312E0,3.103195429E-1,-3.665191531E-1,6.963863969E-2
5.909992187E0,5.778785348E-1,-3.506366313E-1,1.392772794E-1
5.934989062E0,5.949827433E-1,-6.010913849E-1,4.153883457E-2
5.959985937E0,1.039692640E0,-4.691444933E-1,2.150245607E-1
5.984981250E0,9.334020615E-1,-8.784242272E-1,1.136209369E-1
6.005004687E0,1.229060888E0,-2.321287841E-1,9.773843735E-2
6.030000000E0,1.188743711E0,-4.349360466E-1,7.330382615E-2
6.050006250E0,1.142318010E0,-5.033529401E-1,-2.443460980E-3
6.074987500E0,1.290147424E0,-4.202752709E-1,5.864306167E-2
6.099985937E0,1.116661668E0,-8.136724830E-1,2.247984111E-1
6.124981250E0,1.351233959E0,-6.010913849E-1,3.042109013E-1
6.145003125E0,1.516167521E0,-1.007927656E0,3.897320330E-1
6.170000000E0,1.679879427E0,-8.234463334E-1,3.200933933E-1
6.190010937E0,1.764178753E0,-8.698720932E-1,2.394591719E-1
6.214985937E0,1.645670891E0,-8.772024512E-1,2.590068579E-1
6.239984375E0,1.571145415E0,-6.414085031E-1,2.651154995E-1
6.260006250E0,1.650557876E0,-6.194173694E-1,2.467895597E-1
6.285001562E0,1.580919266E0,-6.157521605E-1,1.893682182E-1
6.309998437E0,1.546710730E0,-4.251621962E-1,5.131268129E-2
6.330017187E0,1.511280537E0,-4.557054639E-1,4.276056588E-2
6.354985937E0,1.386664033E0,-3.555235565E-1,-7.696902007E-2
6.379982812E0,1.176526427E0,-2.968805134E-1,-2.162462920E-1
6.400004687E0,9.162978530E-1,-2.394591719E-1,-2.932153046E-1
6.425001562E0,8.796459436E-1,-2.186897546E-1,-4.373795092E-1
6.449996875E0,1.122770309E0,-2.113593668E-1,-6.450737119E-1
6.470034375E0,1.199739337E0,-1.258382350E-1,-6.939429045E-1
6.494984375E0,1.167974353E0,-1.356120855E-1,-5.668829679E-1
6.519981250E0,9.908233881E-1,-8.552113548E-3,-2.871066630E-1
6.540003125E0,8.356636167E-1,2.076941729E-2,-7.574728876E-2
6.565000000E0,7.843509912E-1,1.099557430E-2,1.343903504E-2
6.589996875E0,7.916813493E-1,-3.054326214E-2,1.380555481E-1
6.614993750E0,6.035348773E-1,-2.321287990E-2,2.504547536E-1
6.639990625E0,4.190535545E-1,-7.696902007E-2,3.555235565E-1
6.664985937E0,2.455678284E-1,-3.543018401E-1,5.619960427E-1
6.689982812E0,5.497787148E-2,-2.089159042E-1,5.803219676E-1
6.710006250E0,-6.597344577E-2,1.392772794E-1,5.057964325E-1
6.735001562E0,-2.761110961E-1,2.211332172E-1,5.106833577E-1
6.759998437E0,-4.838052690E-1,-6.230825558E-2,4.581489265E-1
6.784993750E0,-6.707300544E-1,-2.467895597E-1,2.663372457E-1
6.809990625E0,-3.457497358E-1,2.846632004E-1,1.001819000E-1
6.834987500E0,-2.089159042E-1,4.276056588E-1,2.003637999E-1
6.859984375E0,-2.064724565E-1,4.141666293E-1,2.712241709E-1
6.880006250E0,-3.298672140E-1,1.905899495E-1,1.661553383E-1
6.905001562E0,-6.475171447E-1,1.209513173E-1,-1.221730486E-1
6.930000000E0,-8.332201838E-1,-2.321287990E-2,-1.991420686E-1
6.950004687E0,-9.859364629E-1,2.565634064E-2,-1.502728462E-1
6.974985937E0,-1.028697014E0,1.637118906E-1,9.651670605E-2
6.999982812E0,-1.103222609E0,3.958406746E-1,2.174680233E-1
7.020006250E0,-1.056796908E0,5.766567588E-1,7.086037099E-2
7.045001562E0,-1.106887817E0,8.258898258E-1,-1.307251602E-1
7.070031250E0,-1.100779176E0,1.015258074E0,-2.687807083E-1
7.094993750E0,-1.161865711E0,7.269296050E-1,-3.506366313E-1
7.119990625E0,-1.178969860E0,6.206390858E-1,-4.410446882E-1
7.144987500E0,-1.207069755E0,6.682865620E-1,-3.701843321E-1
7.170000000E0,-1.125213742E0,3.836233616E-1,-2.150245607E-1
7.190006250E0,-1.318247199E0,4.324925840E-1,-1.075122803E-1
7.210018750E0,-1.352455616E0,8.307766914E-1,-8.063421398E-2
7.234993750E0,-1.407433510E0,1.144761443E0,-8.796459436E-2
7.259990625E0,-1.601688623E0,9.737191796E-1,-2.504547536E-1
7.284985937E0,-1.709200978E0,7.611380816E-1,-4.337143302E-1
7.309981250E0,-1.567480206E0,3.543018401E-1,-5.314527750E-1
7.330006250E0,-1.510058880E0,4.178318083E-1,-6.328563690E-1
7.355001562E0,-1.404990077E0,4.214970171E-1,-6.646213531E-1
7.380006250E0,-1.555262923E0,3.787364364E-1,-6.743952036E-1
7.404993750E0,-1.556484580E0,-1.380555481E-1,-7.073819637E-1
7.429990625E0,-1.017701507E0,7.965682745E-1,-7.293730974E-1
7.449995312E0,-1.012814522E0,7.061601877E-1,-7.562511563E-1
7.470004687E0,-1.127657175E0,2.443460971E-1,-7.892378569E-1
7.495000000E0,-1.086118340E0,1.588249579E-2,-7.269296050E-1
7.519996875E0,-7.831292152E-1,-5.729916096E-1,-4.544837475E-1
7.544993750E0,-6.621779203E-1,-6.548475623E-1,-3.970623910E-1
7.569990625E0,-3.152064681E-1,-5.412266254E-1,-2.345722467E-1
7.594985937E0,4.398229718E-2,-1.380555481E-1,-9.162978828E-2
7.619982812E0,1.441641897E-1,-1.637118906E-1,-8.185594529E-2
7.640006250E0,2.113593668E-1,-2.602286041E-1,-1.160643920E-1
7.665001562E0,4.349360466E-1,-2.724458873E-1,-4.398229718E-2
7.690023437E0,7.586946487E-1,-3.995058537E-1,-9.651670605E-2
7.714995312E0,8.710938096E-1,-5.546656251E-1,-1.710422635E-1
7.739990625E0,9.541714787E-1,-5.326744914E-1,-8.918632567E-2
7.764987500E0,9.993755221E-1,-6.352998614E-1,8.429940045E-2
7.789984375E0,1.055575132E0,-7.648032904E-1,1.979203373E-1
7.810006250E0,1.200961113E0,-8.625417352E-1,2.235766798E-1
7.835003125E0,1.317025423E0,-7.635815740E-1,1.869247556E-1
7.860000000E0,1.497841597E0,-8.747590184E-1,1.783726513E-1
7.884995312E0,1.599245191E0,-6.096435189E-1,1.014036313E-1
7.909996875E0,1.904677749E0,-7.648032904E-1,2.223549485E-1
7.934987500E0,2.007303238E0,-4.202752709E-1,2.712241709E-1
7.959984375E0,1.992642403E0,-2.199114859E-1,3.005456924E-1
7.984981250E0,1.887573600E0,-1.221730467E-2,2.993239760E-1
8.005003125E0,1.661553383E0,1.417207420E-1,2.736676335E-1
8.030000000E0,1.656666517E0,-1.649336070E-1,2.895501256E-1
8.050029687E0,1.382998943E0,-2.064724565E-1,2.138028294E-1
8.074987500E0,1.486845970E0,-4.569272101E-1,1.918116808E-1
8.099984375E0,1.280373573E0,-4.752531648E-1,9.651670605E-2
8.120006250E0,1.216843605E0,-6.890559793E-1,-1.221730490E-3
8.145003125E0,1.148426652E0,-5.302309990E-1,-1.014036313E-1
8.170000000E0,1.082453251E0,-5.656611919E-1,-2.565634064E-2
8.194995312E0,9.883799553E-1,-3.909537494E-1,1.832595766E-1
8.219992187E0,1.121548533E0,-3.652974069E-1,2.174680233E-1
8.244989062E0,1.070235848E0,-1.172861233E-1,-3.420845419E-2
8.269985937E0,9.737191796E-1,-3.738495111E-1,-1.795943826E-1
8.294981250E0,7.428121567E-1,-4.239404798E-1,-1.368338168E-1
8.315003125E0,5.375614166E-1,-3.310889602E-1,-2.932153083E-2
8.340001562E0,4.789183438E-1,-1.282816976E-1,0.000000000E0
8.364996875E0,2.370157093E-1,1.099557430E-2,-7.452555746E-2
8.389993750E0,-4.764748737E-2,6.597344577E-2,-1.624901593E-1
8.414989062E0,-3.824016452E-1,-1.331686229E-1,-3.139847219E-1
8.439985937E0,-6.768386960E-1,-9.896016866E-2,-4.019493163E-1
8.464982812E0,-1.043357849E0,1.710422635E-1,-2.333505154E-1
8.485004687E0,-1.073901057E0,7.024950385E-1,-1.380555481E-1
8.510001562E0,-8.686503768E-1,8.185594082E-1,-2.211332172E-1
8.534998437E0,-7.574728876E-2,-1.258382350E-1,-2.125810981E-1
8.559995312E0,2.345722467E-1,-4.117231667E-1,-3.762929738E-1
8.584990625E0,-3.225368559E-1,-4.398229718E-2,-4.300491214E-1
8.609987500E0,-9.957103133E-1,4.373795092E-1,-2.101376355E-1
8.634982812E0,-1.148426652E0,6.902776957E-1,1.649336070E-1
8.655006250E0,-1.051909924E0,4.911356568E-1,3.750712574E-1
8.680003125E0,-1.156978726E0,5.033529401E-1,1.282816976E-1
8.704998437E0,-1.297477722E0,9.737191796E-1,-1.893682182E-1
8.729995312E0,-1.477072120E0,1.325577617E0,-9.773843735E-2
8.754992187E0,-1.565036774E0,1.169196010E0,1.099557430E-1
8.779987500E0,-1.695761919E0,6.658431292E-1,7.819075137E-2
8.804984375E0,-1.620014548E0,9.566149712E-1,-8.307766914E-2
8.829981250E0,-1.555262923E0,8.894197941E-1,-1.392772794E-1
8.850025000E0,-1.474628687E0,9.957103133E-1,-1.881464869E-1
8.875000000E0,-1.590693116E0,9.957103133E-1,-9.162978828E-2
8.899996875E0,-1.577254057E0,1.055575132E0,-1.441641897E-1
8.920018750E0,-1.694540143E0,9.077457190E-1,-2.223549485E-1
8.944982812E0,-1.671327233E0,6.243042946E-1,-2.333505154E-1
8.965006250E0,-1.623679757E0,3.995058537E-1,-1.747074574E-1
8.990018750E0,-1.839926124E0,2.614503205E-1,-8.674286306E-2
9.014998437E0,-1.935221076E0,-1.221730490E-3,-6.352998316E-2
9.039995312E0,-1.628566742E0,6.597344279E-1,1.588249579E-2
9.064992187E0,-1.232726097E0,1.034805655E0,2.993239760E-1
9.089989062E0,-1.015258074E0,7.855727077E-1,3.481931984E-1
9.114984375E0,-8.600982428E-1,-1.722639948E-1,2.858849168E-1
9.139981250E0,-7.916813493E-1,-7.391469479E-1,3.481931984E-1
9.160004687E0,-5.729916096E-1,-5.448917747E-1,3.249803185E-1
9.185000000E0,-1.612684280E-1,-8.869763017E-1,1.722639948E-1
9.209996875E0,2.296853215E-1,-5.180137157E-1,1.698205322E-1
9.234992187E0,4.105014503E-1,-4.776966274E-1,1.661553383E-1
9.259989062E0,5.082398653E-1,-2.932153046E-1,1.417207420E-1
9.284985937E0,7.305948138E-1,-4.728097022E-1,1.295034289E-1
9.309982812E0,8.295549750E-1,-6.658431292E-1,-3.054326214E-2
9.330004687E0,8.955284357E-1,-6.243042946E-1,-8.552113548E-3
9.350014062E0,1.155757070E0,-9.162978530E-1,-1.832595654E-2
9.374990625E0,1.335351348E0,-6.682865620E-1,6.108652335E-3
9.399987500E0,1.530828238E0,-5.888741016E-1,-1.221730490E-3
9.424985937E0,1.655444741E0,-6.780604124E-1,-7.208209485E-2
9.449981250E0,1.590693116E0,-7.000515461E-1,-1.576032341E-1
9.470004687E0,1.544267297E0,-7.611380816E-1,-5.986479297E-2
9.495000000E0,1.676214218E0,-7.843509912E-1,5.986479297E-2
9.519996875E0,1.773952603E0,-8.014551997E-1,8.918632567E-2
9.544993750E0,1.865582466E0,-7.037167549E-1,2.321287990E-2
9.569990625E0,1.806939363E0,-5.998696685E-1,-3.054326214E-2
9.594985937E0,1.838704348E0,-3.396410644E-1,-8.796459436E-2
9.619989062E0,1.794722080E0,-2.419026345E-1,-8.552113175E-2
9.640006250E0,1.682322860E0,-3.115412593E-1,-9.651670605E-2
9.665001562E0,1.551597714E0,-3.811798990E-1,-9.285151958E-2
9.690014062E0,1.649336100E0,-4.227187335E-1,-9.773843735E-2
9.710021875E0,1.663996935E0,-4.483750761E-1,-6.108652428E-2
9.734985937E0,1.462411404E0,-3.909537494E-1,-5.619960278E-2
9.760015625E0,1.303586364E0,-2.748893499E-1,-9.285151958E-2
9.784978125E0,1.159422159E0,-1.197295859E-1,-7.574728876E-2
9.805000000E0,9.786061049E-1,-1.710422635E-1,6.230825558E-2
9.825003125E0,9.553932548E-1,-1.844813079E-1,8.796459436E-2
9.849987500E0,7.000515461E-1,-1.991420686E-1,1.148426607E-1
9.874984375E0,3.200933933E-1,-5.619960278E-2,6.597344577E-2
9.899981250E0,6.475171447E-2,-4.153883457E-2,4.886921961E-3
9.920004687E0,4.764748737E-2,-2.272418737E-1,1.343903504E-2
9.944998437E0,-8.429940045E-2,-4.984660447E-1,1.160643920E-1
9.969998437E0,-3.249803185E-1,-1.111774743E-1,3.494149148E-1
9.994992187E0,-8.185594082E-1,6.853907704E-1,4.337143302E-1
1.001998906E1,-1.047023058E0,1.003040671E0,4.276056588E-1
1.004498438E1,-8.967501521E-1,1.036027431E0,3.885102868E-1
1.006998281E1,-7.819074988E-1,4.178318083E-1,3.995058537E-1
1.009000469E1,-6.194173694E-1,-6.841690838E-2,3.396410644E-1
1.011500000E1,-5.314527750E-1,2.357939780E-1,3.787364364E-1
1.013999688E1,-6.585127115E-1,2.663372457E-1,2.626720369E-1
1.016499375E1,-8.466592431E-1,2.724458873E-1,-1.588249579E-2
1.018999062E1,-9.309586287E-1,3.848451078E-1,-2.419026345E-1
1.021498594E1,-9.431759119E-1,5.473352671E-1,-2.871066630E-1
1.023998281E1,-1.226617336E0,7.513642311E-1,-3.054326177E-1
1.026000625E1,-1.466076612E0,9.847147465E-1,-2.455678284E-1
1.028500156E1,-1.696983576E0,1.260825872E0,-2.748893499E-1
1.030999844E1,-1.751961470E0,1.760513663E0,-5.497787148E-2
1.033499375E1,-1.932777643E0,1.568701982E0,-2.186897546E-1
1.035999062E1,-2.064724445E0,1.231504321E0,-4.703662395E-1
1.038498750E1,-1.843591332E0,7.037167549E-1,-5.644394755E-1
1.040998438E1,-1.750739813E0,2.871066630E-1,-5.534439087E-1
1.043000781E1,-1.549154282E0,3.604104817E-1,-5.693264008E-1
1.045500313E1,-1.391551018E0,2.528982162E-1,-7.476990223E-1
1.048000000E1,-1.429424644E0,6.487388611E-1,-1.014036298E0
1.050000313E1,-1.413542151E0,7.428121567E-1,-9.663888216E-1
1.052498594E1,-1.072679400E0,-1.966986060E-1,-7.440338731E-1
1.054998281E1,-1.016479731E0,1.062905490E-1,-6.365215778E-1
1.057000625E1,-9.285151362E-1,5.681046844E-1,-8.332201838E-1
1.059500156E1,-1.262047529E0,5.986479297E-2,-8.686503768E-1
1.061999844E1,-1.170417786E0,-4.276056588E-1,-1.576032341E-1
1.064499531E1,-7.037167549E-1,-4.764748812E-1,1.698205322E-1
1.066999219E1,-4.373795092E-1,-3.933972120E-1,2.247984111E-1
1.069498750E1,-2.663372457E-1,-2.357939780E-1,3.677408695E-1
1.071998438E1,1.099557430E-2,-1.795943826E-1,4.960225821E-1
1.074000625E1,3.445279896E-1,-1.747074574E-1,6.328563690E-1
1.076500312E1,6.145304441E-1,-5.106833577E-1,8.307766914E-1
1.079000000E1,1.009149313E0,-6.059783101E-1,7.244861722E-1
1.081499531E1,1.114218235E0,-7.574728727E-1,7.415903807E-1
1.083999219E1,1.275486588E0,-7.990117073E-1,8.649851680E-1
1.086498750E1,1.670105577E0,-6.878342628E-1,8.539896011E-1
1.088998594E1,1.854586840E0,-6.352998614E-1,7.000515461E-1
1.091498125E1,1.765400529E0,-7.391469479E-1,5.277875662E-1
1.093500313E1,1.747074604E0,-6.658431292E-1,4.752531648E-1
1.096000000E1,1.182635069E0,-6.670648456E-1,4.361577928E-1
1.098499688E1,1.368338108E0,-5.644394755E-1,2.370157093E-1
1.100999375E1,1.789835095E0,-1.078788042E0,-7.941248268E-2
1.103498906E1,2.041511536E0,-1.109331250E0,-4.312708676E-1
1.105998594E1,2.122145891E0,-1.224173903E0,-1.209513173E-1
1.108498281E1,2.091602564E0,-8.491026759E-1,1.392772794E-1
1.110500469E1,1.981646776E0,-3.286454976E-1,-9.162978828E-2
1.113000156E1,1.776396155E0,-2.492330223E-1,-3.335324228E-1
1.115499688E1,1.618792892E0,-1.966986060E-1,-2.015855312E-1
1.117999531E1,1.547932506E0,-6.328563690E-1,-5.619960278E-2
1.120000312E1,1.413542151E0,-7.538077235E-1,-6.841690838E-2
1.122498125E1,1.363451242E0,-7.684684396E-1,-3.909537569E-2
1.124500312E1,1.232726097E0,-3.347541392E-1,-1.246165112E-1
1.127000156E1,9.529497623E-1,-3.054326177E-1,-1.233947799E-1
1.129499688E1,3.995058537E-1,3.176499158E-2,-2.553416789E-1
1.131999375E1,2.480112910E-1,-6.206390858E-1,-2.015855312E-1
1.134498906E1,5.864306167E-2,-5.265658498E-1,-1.637118906E-1
1.137002188E1,-5.375614017E-2,-2.321287990E-2,-2.480112910E-1
1.139498281E1,-5.705481172E-1,1.551597714E-1,-2.675589621E-1
1.141500469E1,-1.062905550E0,3.323106766E-1,-1.661553383E-1
1.144000156E1,-1.081231475E0,4.825835228E-1,3.420845419E-2
1.146499844E1,-7.379252315E-1,6.597344577E-2,1.514945775E-1
1.148999375E1,-3.359758854E-1,-1.136209369E-1,1.087340117E-1
1.151499063E1,-3.787364364E-1,2.687807009E-2,1.478293836E-1
1.154001406E1,-6.328563690E-1,4.398229718E-1,-7.330382708E-3
1.156498281E1,-3.982841372E-1,3.359758854E-1,-1.563815027E-1
1.158500625E1,-6.829473376E-1,4.447098970E-1,-3.665191354E-3
1.161000312E1,-1.150870085E0,6.377432942E-1,5.253440887E-2
1.163002188E1,-1.277930021E0,7.672467232E-1,4.886921961E-3
1.165498906E1,-1.106887817E0,6.377432942E-1,-8.307766914E-2
1.167998594E1,-1.474628687E0,7.122688890E-1,-1.893682182E-1
1.169999062E1,-1.634675384E0,7.061601877E-1,-1.502728462E-1
1.172000000E1,-1.584584475E0,9.150761366E-1,-1.319468915E-1
1.174499531E1,-1.555262923E0,7.403686643E-1,-2.761110961E-1
1.176999219E1,-1.771509171E0,5.632177591E-1,-4.923573732E-1
1.179498906E1,-1.968207836E0,5.998696685E-1,-4.825835228E-1
1.181998594E1,-1.816713214E0,9.578366876E-1,-3.787364364E-1
1.184498125E1,-1.859473825E0,8.686503768E-1,-4.263839424E-1
1.186500469E1,-1.836260915E0,9.871582389E-1,-4.276056588E-1
1.189000156E1,-1.821600080E0,1.086118340E0,-4.019493163E-1
1.191499688E1,-1.804495931E0,1.269377947E0,-3.824016452E-1
1.193999375E1,-1.712866068E0,1.285260439E0,-4.056145251E-1
1.196498906E1,-1.687209725E0,9.700539708E-1,-3.848451078E-1
1.198999219E1,-1.397659659E0,3.762929738E-1,-5.180137157E-1
1.201498281E1,-1.010371089E0,-2.382374406E-1,-4.996877611E-1
1.203500469E1,-8.539896011E-1,-4.593706429E-1,-4.361577928E-1
1.206000156E1,-7.257078886E-1,-6.157521605E-1,-3.115412593E-1
1.208499844E1,-5.045746565E-1,-3.616322279E-1,-1.734857261E-1
1.210999531E1,-1.563815027E-1,-3.042109013E-1,-2.076941729E-2
1.213499062E1,1.783726513E-1,-1.331686229E-1,1.857030392E-1
1.215998750E1,3.701843321E-1,-1.673770696E-1,3.738495111E-1
1.218498438E1,5.461135507E-1,-3.164281845E-1,5.119050741E-1
1.220500625E1,7.819074988E-1,-6.695082784E-1,6.389650106E-1
1.223002188E1,8.943067193E-1,-7.550294399E-1,6.829473376E-1
1.225002344E1,1.141096234E0,-8.271115422E-1,7.342600226E-1
1.227498906E1,1.392772794E0,-6.658431292E-1,7.770205736E-1
1.230003281E1,1.563814998E0,-8.710938096E-1,6.939429045E-1
1.232498281E1,1.657888293E0,-8.087855577E-1,6.377432942E-1
1.234500469E1,1.665218592E0,-7.782422900E-1,5.326744914E-1
1.237000156E1,1.787391663E0,-6.023131013E-1,3.420845270E-1
1.239499844E1,1.843591332E0,-6.572909951E-1,1.392772794E-1
1.241999531E1,1.986533761E0,-7.440338731E-1,-2.076941729E-2
1.244499062E1,2.063502789E0,-8.613199592E-1,1.466076542E-2
1.247000469E1,2.162462950E0,-9.138544202E-1,1.795943826E-1
1.249002031E1,2.175901890E0,-9.957103133E-1,2.822197378E-1
1.251500625E1,1.992642403E0,-1.125213742E0,2.993239760E-1
1.254000625E1,1.855808616E0,-6.499606371E-1,2.541199327E-1
1.256499844E1,1.706757426E0,-4.630358517E-1,1.527163088E-1
1.258999688E1,1.615127683E0,-2.284636050E-1,-4.520402849E-2
1.261499219E1,1.638340592E0,-2.272418737E-1,-2.321287841E-1
1.264001094E1,1.536936879E0,-3.225368559E-1,-3.787364364E-1
1.266498438E1,1.390329242E0,-4.251621962E-1,-4.410446882E-1
1.268998281E1,1.131322384E0,-5.522221923E-1,-3.982841372E-1
1.271000469E1,9.053022861E-1,-6.218608022E-1,-2.516764700E-1
1.273500000E1,6.328563690E-1,-5.864306092E-1,-2.687807009E-2
1.276000000E1,4.984660447E-1,-4.410446882E-1,-4.520402849E-2
1.278499375E1,3.286454976E-1,-2.614503205E-1,-2.052507252E-1
1.280999063E1,6.352998316E-2,-6.108652428E-2,-1.759291887E-1
1.283498594E1,-1.075122803E-1,-3.543018550E-2,-1.295034289E-1
1.285998281E1,-4.105014503E-1,-7.208209485E-2,-6.719517708E-2
1.288000625E1,-6.267477274E-1,2.809980139E-2,-1.331686229E-1
1.290500156E1,-7.428121567E-1,2.064724565E-1,-2.455678284E-1
1.292999844E1,-7.403686643E-1,2.101376355E-1,-2.553416789E-1
1.295499375E1,-8.026769161E-1,1.747074574E-1,-1.966986060E-1
1.298002969E1,-9.602801800E-1,1.197295859E-1,-1.417207420E-1
1.300498750E1,-1.036027431E0,3.200933933E-1,-1.417207420E-1
1.302998438E1,-1.055575132E0,3.726277947E-1,-6.963863969E-2
1.305002656E1,-1.134987593E0,4.276056588E-1,-7.208209485E-2
1.307500156E1,-1.167974353E0,7.061601877E-1,-4.886921868E-2
1.310000000E1,-1.423316002E0,7.684684396E-1,-5.864306167E-2
1.312001875E1,-1.562593222E0,7.476990223E-1,-5.986479297E-2
1.314498594E1,-1.485624313E0,8.136724830E-1,-1.991420686E-1
1.316998438E1,-1.528384805E0,9.346238375E-1,-2.101376355E-1
1.319002344E1,-1.667662144E0,1.020144939E0,-1.527163088E-1
1.321500156E1,-1.739744186E0,9.810495973E-1,-7.452555746E-2
1.323999844E1,-1.824043632E0,9.053022861E-1,-1.698205322E-1
1.326499375E1,-1.910786510E0,9.395107627E-1,-3.274237812E-1
1.328999063E1,-2.057394028E0,9.028587937E-1,-3.445279896E-1
1.331498750E1,-2.150245667E0,9.016370773E-1,-3.604104817E-1
1.333998438E1,-2.067167997E0,8.112290502E-1,-4.153883457E-1
1.336000625E1,-1.907121301E0,6.866125464E-1,-3.750712574E-1
1.338001250E1,-1.787391663E0,5.106833577E-1,-3.579670191E-1
1.340499375E1,-1.640784025E0,4.031710625E-1,-4.447098970E-1
1.342999062E1,-1.522276163E0,3.090977967E-1,-5.668829679E-1
1.345498594E1,-1.076344490E0,-5.131268129E-2,-4.984660447E-1
1.347998281E1,-6.682865620E-1,-2.748893499E-1,-3.958406746E-1
1.350000625E1,-4.764748812E-1,-2.211332172E-1,-3.139847219E-1
1.352500156E1,-1.832595654E-2,-3.347541392E-1,-1.295034289E-1
1.354999844E1,1.881464869E-1,-3.714060783E-1,-9.040805697E-2
1.357499375E1,2.492330223E-1,-4.520402849E-2,2.565634064E-2
1.359999062E1,4.251621962E-1,-1.869247556E-1,1.014036313E-1
1.362498750E1,6.194173694E-1,-4.129449129E-1,1.123992056E-1
1.364999375E1,8.210029006E-1,-6.560692787E-1,2.382374406E-1
1.367000625E1,8.271115422E-1,-8.857545853E-1,2.321287841E-1
1.369500313E1,1.025031924E0,-8.222246170E-1,2.590068579E-1
1.372000000E1,1.264491081E0,-9.908233881E-1,2.932153046E-1
1.374499531E1,1.439198494E0,-9.004153609E-1,2.296853215E-1
1.376999219E1,1.528384805E0,-9.553932548E-1,1.795943826E-1
1.379498906E1,1.599245191E0,-9.297369123E-1,1.563815027E-1
1.381998594E1,1.736078978E0,-6.792821288E-1,7.574728876E-2
1.384498125E1,1.810604572E0,-8.393288255E-1,2.443460980E-3
1.386500313E1,1.858252048E0,-7.354817390E-1,-2.076941729E-2
1.389001406E1,1.914451599E0,-6.682865620E-1,-1.221730467E-2
1.391499688E1,1.992642403E0,-5.668829679E-1,-3.787364438E-2
1.394003281E1,1.920560360E0,-4.984660447E-1,-1.588249579E-2
1.396498906E1,1.810604572E0,-2.773328125E-1,7.330382708E-3
1.398998594E1,1.701870561E0,-3.323106766E-1,4.276056588E-2
1.401498281E1,1.654223084E0,-3.714060783E-1,1.014036313E-1
1.403500469E1,1.519832730E0,-2.480112910E-1,1.148426607E-1
1.406000156E1,1.330464482E0,-2.663372457E-1,9.162978828E-2
1.408499688E1,1.119105101E0,-3.909537494E-1,2.321287990E-2
1.410999375E1,1.011592865E0,-4.227187335E-1,-1.466076542E-2
1.413499062E1,9.175195694E-1,-3.066543341E-1,8.918632567E-2
1.415998750E1,6.951646209E-1,-7.330382708E-3,2.919935882E-1
1.418498281E1,3.103195429E-1,-3.909537494E-1,4.789183438E-1
1.420500625E1,7.452555746E-2,-3.139847219E-1,2.797762752E-1
1.423000313E1,-1.661553383E-1,-2.761110961E-1,1.417207420E-1
1.425001250E1,-2.553416789E-1,-2.638937831E-1,9.529497474E-2
1.427498906E1,-2.981022298E-1,-1.221730486E-1,-7.574728876E-2
1.429998594E1,-4.605923891E-1,-3.200933933E-1,-2.040289938E-1
1.432498281E1,-5.778785348E-1,-2.736676335E-1,-3.103195429E-1
1.434500469E1,-6.866125464E-1,6.108652428E-2,-3.103195429E-1
1.437000156E1,-7.745771408E-1,2.602286041E-1,-3.139847219E-1
1.439499844E1,-7.806857824E-1,3.469714522E-1,-2.028072625E-1
1.441999531E1,-9.126326442E-1,4.092797041E-1,-1.417207420E-1
1.444499062E1,-9.309586287E-1,5.619960427E-1,-2.003637999E-1
1.446998750E1,-8.698720932E-1,7.684684396E-1,-1.771509200E-1
1.449498281E1,-1.203404546E0,4.276056588E-1,-3.543018550E-2
1.451500625E1,-1.490511179E0,4.581489265E-1,-2.064724565E-1
1.454000312E1,-1.259604096E0,7.843509912E-1,-1.966986060E-1
1.456499844E1,-1.398881435E0,9.822713137E-1,-3.188716471E-1
1.459004219E1,-1.759291887E0,1.069014192E0,-2.614503205E-1
1.461499219E1,-1.938886285E0,1.387885809E0,-2.822197378E-1
1.463998906E1,-1.932777643E0,1.114218235E0,-4.886921942E-1
1.466498438E1,-1.921782017E0,1.192408919E0,-7.012732625E-1
1.468998125E1,-1.987755537E0,7.648032904E-1,-9.468411207E-1
1.471003438E1,-1.954768777E0,7.965682745E-1,-9.114109278E-1
1.473500000E1,-1.953547001E0,1.099557400E0,-8.429940343E-1
1.475999688E1,-1.866804123E0,8.148941994E-1,-7.709119320E-1
1.478499219E1,-1.631010175E0,7.611380816E-1,-6.218608022E-1
1.480998906E1,-1.529606581E0,-2.687807009E-2,-9.724974632E-1
1.483498594E1,-1.301142931E0,-2.345722467E-1,-8.649851680E-1
1.485998281E1,-1.099557400E0,-4.227187335E-1,-8.185594082E-1
1.488000469E1,-7.953465581E-1,-8.466592431E-1,-7.843509912E-1
1.490500156E1,-4.007275999E-1,-3.897320330E-1,-7.110471129E-1
1.492999844E1,-1.673770696E-1,-2.260201424E-1,-6.475171447E-1
1.495499375E1,1.637118906E-1,-2.687807083E-1,-5.021312237E-1
1.497999063E1,4.838052690E-1,-1.356120855E-1,-2.284636050E-1
1.500498594E1,5.497786999E-1,5.864306167E-2,-5.619960278E-2
1.502998438E1,7.379252315E-1,-1.136209369E-1,1.710422710E-2
1.505000625E1,9.407324791E-1,-3.249803185E-1,1.502728462E-1
1.507500156E1,1.379333735E0,-4.557054639E-1,2.638937831E-1
1.509999844E1,1.514945745E0,-6.316346526E-1,3.384193480E-1
1.512499531E1,1.560149789E0,-6.511823535E-1,2.553416789E-1
1.515001719E1,1.755626678E0,-6.414085031E-1,3.530800939E-1
1.517498750E1,1.998751044E0,-5.363397002E-1,3.262020350E-1
1.520001250E1,2.153910875E0,-6.609562039E-1,4.239404798E-1
1.522498125E1,1.987755537E0,-5.363397002E-1,4.984660447E-1
1.524500312E1,1.929112434E0,-1.991420686E-1,5.925392509E-1
1.527000000E1,1.944994926E0,-2.724458873E-1,6.157521605E-1
1.529499531E1,2.152688980E0,-3.164281845E-1,5.229006410E-1
1.531999219E1,2.211332083E0,-2.736676335E-1,4.324925840E-1
1.534498906E1,1.944994926E0,-4.141666293E-1,5.876523852E-1
1.536998594E1,1.912008166E0,-4.349360466E-1,6.377432942E-1
1.539498125E1,1.852143407E0,-2.382374406E-1,5.900958180E-1
1.541500469E1,1.816713214E0,-3.298672140E-1,4.288274050E-1
1.544000000E1,1.560149789E0,1.832595654E-2,3.677408695E-1
1.546499688E1,1.213178396E0,2.687807009E-2,1.991420686E-1
1.548999375E1,1.028697014E0,-7.086037099E-2,4.618141055E-1
1.550999688E1,9.053022861E-1,-2.932153046E-1,6.951646209E-1
1.553498125E1,6.047565937E-1,2.541199327E-1,5.839871764E-1
1.555500312E1,3.213151097E-1,2.932153046E-1,3.799581826E-1
1.558000000E1,-2.687807009E-2,2.541199327E-1,3.371976018E-1
1.560499688E1,1.343903504E-2,4.141666293E-1,3.872885704E-1
1.562999375E1,4.398229718E-2,-2.541199327E-1,4.752531648E-1
1.565498906E1,-1.282816976E-1,1.954768747E-1,2.211332172E-1
1.567998594E1,-2.968805134E-1,3.726277947E-1,1.380555481E-1
1.570498281E1,-4.520402849E-1,3.298672140E-1,1.502728462E-1
1.572500469E1,-5.204572082E-1,2.981022298E-1,1.795943826E-1
1.575001719E1,-8.295549750E-1,3.982841372E-1,3.420845419E-2
1.577499688E1,-1.044579506E0,5.534439087E-1,-7.330382615E-2
1.579999531E1,-1.163087368E0,3.591887653E-1,-1.099557430E-2
1.582499063E1,-1.288925648E0,3.323106766E-1,-8.552113548E-3
1.585001250E1,-1.306029916E0,5.326744914E-1,-1.221730467E-2
1.587498281E1,-1.378111959E0,6.120869517E-1,-7.941248268E-2
1.589500625E1,-1.418429136E0,8.894197941E-1,-1.637118906E-1
1.592000313E1,-1.617571115E0,9.602801800E-1,-1.380555481E-1
1.594499844E1,-1.831373930E0,8.527678847E-1,-1.380555481E-1
1.596999531E1,-1.880243182E0,9.590584040E-1,-1.368338168E-1
1.599002656E1,-2.094046116E0,7.586946487E-1,-1.246165112E-1
1.601498125E1,-2.417804718E0,7.635815740E-1,1.343903504E-2
1.603500469E1,-2.495995283E0,1.033583999E0,0.000000000E0
1.606000156E1,-2.145358801E0,1.141096234E0,-7.696902007E-2
1.608499688E1,-1.996307611E0,1.159422159E0,-3.359758854E-1
1.610999375E1,-1.963320851E0,8.564330339E-1,-4.202752709E-1
1.613499062E1,-1.828930497E0,7.134906054E-1,-6.695082784E-1
1.615998750E1,-1.500285029E0,4.789183438E-1,-6.805038452E-1
1.618498281E1,-1.155757070E0,3.640756905E-1,-6.658431292E-1
1.620500625E1,-9.016370773E-1,2.883283794E-1,-6.181955934E-1
1.623000312E1,-7.110471129E-1,2.419026345E-1,-5.155702829E-1
1.625002344E1,-4.312708676E-1,7.941248268E-2,-4.874704480E-1
1.627498906E1,2.235766798E-1,-5.619960278E-2,-3.176499307E-1
1.629998906E1,3.762929738E-1,-5.400048494E-1,-3.628539443E-1
1.632498750E1,5.229006410E-1,-4.178318083E-1,-2.125810981E-1
1.634500469E1,6.768386960E-1,-5.057964325E-1,-1.600466967E-1
1.637000156E1,1.088561893E0,-6.792821288E-1,2.321287990E-2
1.639499688E1,1.215621829E0,-9.419541955E-1,6.352998316E-2
1.641999531E1,1.395216227E0,-8.674286604E-1,1.075122803E-1
1.644499063E1,1.524719596E0,-1.093448758E0,1.624901593E-1
1.646998750E1,1.643227458E0,-1.153313518E0,1.918116808E-1
1.649498281E1,1.837482572E0,-9.786061049E-1,1.172861233E-1
1.651500469E1,2.036624670E0,-8.405505419E-1,1.441641897E-1
1.654000313E1,1.858252048E0,-1.134987593E0,7.574728876E-2
1.656499844E1,1.769065738E0,-8.185594082E-1,9.285151958E-2
1.659003438E1,1.804495931E0,-7.428121567E-1,-8.307766914E-2
1.661499062E1,2.034181118E0,-9.419541955E-1,-2.834414840E-1
1.663998906E1,1.987755537E0,-9.871582389E-1,-3.396410644E-1
1.666498438E1,1.929112434E0,-6.731734872E-1,-2.516764700E-1
1.669001250E1,1.890017033E0,-6.756169796E-1,-3.982841372E-1
1.671497813E1,1.729970336E0,-3.616322279E-1,-4.593706429E-1
1.673500000E1,1.486845970E0,-2.101376355E-1,-4.202752709E-1
1.676001094E1,1.310916781E0,-7.941248268E-2,-2.504547536E-1
1.678499219E1,1.249830246E0,-1.930334121E-1,-1.844813079E-1
1.680998906E1,9.358455539E-1,-5.766567588E-1,-9.773843735E-2
1.683498594E1,8.038986325E-1,-4.776966274E-1,5.864306167E-2
1.685998281E1,5.106833577E-1,-2.089159042E-1,2.040289938E-1
1.688000469E1,3.359758854E-1,1.099557430E-2,1.551597714E-1
1.690002813E1,2.541199327E-1,-5.131268129E-2,1.783726513E-1
1.692499219E1,-1.050688177E-1,1.172861233E-1,1.612684280E-1
1.694999844E1,-3.652974069E-1,5.229006410E-1,2.150245607E-1
1.697498438E1,-5.338962078E-1,5.045746565E-1,3.237585723E-1
1.699999375E1,-5.681046844E-1,6.731734872E-1,1.893682182E-1
1.702000313E1,-6.927211881E-1,6.866125464E-1,9.773843735E-2
1.704500000E1,-9.053022861E-1,5.033529401E-1,1.368338168E-1
1.706999688E1,-9.126326442E-1,5.803219676E-1,1.307251602E-1
1.709499219E1,-9.468411207E-1,4.691444933E-1,5.497787148E-2
1.711998906E1,-1.102000833E0,8.503243923E-1,5.009094998E-2
1.714498594E1,-1.321912408E0,9.138544202E-1,7.086037099E-2
1.716998281E1,-1.445307136E0,6.853907704E-1,-5.375614017E-2
1.719000469E1,-1.418429136E0,8.210029006E-1,-1.417207420E-1
1.721002500E1,-1.513724089E0,8.881980777E-1,-1.966986060E-1
1.723499219E1,-1.683544636E0,9.211847782E-1,-2.089159042E-1
1.725998906E1,-2.024407387E0,1.066570759E0,-3.298672289E-2
1.728498438E1,-2.141693592E0,1.191187263E0,-2.504547536E-1
1.730998125E1,-2.193006277E0,1.104444385E0,-4.703662395E-1
1.733000312E1,-2.228436470E0,1.142318010E0,-4.948008358E-1
1.735500000E1,-2.090380907E0,7.220426798E-1,-3.799581826E-1
1.737999688E1,-2.040289879E0,6.291912198E-1,-3.176499307E-1
1.740499375E1,-1.871691108E0,8.332201838E-1,-4.312708676E-1
1.742998906E1,-1.833817482E0,1.007927656E0,-3.970623910E-1
1.745498594E1,-1.755626678E0,1.058018565E0,-3.982841372E-1
1.747998281E1,-1.386664033E0,1.353677392E0,-1.527163088E-1
1.750001250E1,-1.006705880E0,9.138544202E-1,-2.076941729E-1
1.752500156E1,-5.155702829E-1,6.963863969E-2,-2.919935882E-1
1.754999844E1,-3.115412593E-1,-5.009095073E-1,-3.090977967E-1
1.757499375E1,-8.674286306E-2,-6.194173694E-1,-2.162462920E-1
1.759999062E1,3.213151097E-1,-7.501425147E-1,8.552113548E-3
1.762498594E1,5.510004163E-1,-7.684684396E-1,-8.552113175E-2
1.765000312E1,1.103222609E0,-4.764748812E-1,2.907718420E-1
1.767000625E1,1.112996459E0,-9.443976283E-1,1.905899495E-1
1.769500156E1,1.251052022E0,-6.524040699E-1,2.174680233E-1
1.771999844E1,1.372003317E0,-8.833111525E-1,4.214970171E-1
1.774499531E1,1.320690632E0,-8.173376918E-1,3.274237812E-1
1.776999219E1,1.663996935E0,-6.059783101E-1,5.119050741E-1
1.779498750E1,1.714087844E0,-1.027475357E0,4.080579877E-1
1.781998438E1,1.838704348E0,-8.894197941E-1,4.654793143E-1
1.784498125E1,2.021963835E0,-6.780604124E-1,4.300491214E-1
1.786500312E1,2.156354189E0,-7.257078886E-1,3.762929738E-1
1.789000000E1,2.244318962E0,-9.053022861E-1,2.981022298E-1
1.791499531E1,2.042733431E0,-9.932668805E-1,2.284636050E-1
1.793999375E1,2.092824221E0,-7.611380816E-1,2.602286041E-1
1.795999688E1,2.193006277E0,-7.232644558E-1,3.225368559E-1
1.798000625E1,2.289522886E0,-5.033529401E-1,4.019493163E-1
1.800001562E1,2.146580458E0,-4.300491214E-1,4.410446882E-1
1.802499375E1,1.661553383E0,-5.412266254E-1,3.457497358E-1
1.804999062E1,1.330464482E0,-3.176499158E-2,7.819075137E-2
1.807498594E1,1.148426652E0,1.466076542E-2,-2.223549485E-1
1.809998281E1,1.078788042E0,-2.199114859E-1,-1.661553383E-1
1.812000469E1,7.257078886E-1,-3.885102868E-1,1.343903504E-2
1.814500156E1,1.783726513E-1,-4.019493163E-1,5.131268129E-2
1.816999844E1,-9.529497474E-2,-1.356120855E-1,-6.108652335E-3
1.819499375E1,-1.441641897E-1,-1.099557430E-1,8.552113548E-3
1.821999062E1,-2.443460934E-2,2.968805134E-1,-5.742133036E-2
1.824498594E1,-1.429424584E-1,3.371976018E-1,6.230825558E-2
1.826998438E1,-4.190535545E-1,3.543018401E-1,2.125810981E-1
1.829000625E1,-5.681046844E-1,2.822197378E-1,2.125810981E-1
1.831500156E1,-5.595525503E-1,5.522221923E-1,1.453859210E-1
1.833999844E1,-5.681046844E-1,7.648032904E-1,6.352998316E-2
1.836499531E1,-5.986479521E-1,6.499606371E-1,-4.520402849E-2
1.838999219E1,-1.043357849E0,3.371976018E-1,-9.773843922E-3
1.841498750E1,-1.270599723E0,6.218608022E-1,6.719517708E-2
1.843998438E1,-1.231504321E0,8.881980777E-1,1.563815027E-1
1.846498125E1,-1.528384805E0,1.170417786E0,2.419026345E-1
1.848500313E1,-1.946216583E0,1.329242706E0,2.565633953E-1
1.851000000E1,-2.188119173E0,8.930850029E-1,-8.796459436E-2
1.853499688E1,-2.026850939E0,1.296256065E0,-2.040289938E-1
1.855999375E1,-2.160019398E0,8.918632269E-1,-2.993239760E-1
1.858498906E1,-2.310292244E0,2.296853215E-1,-3.811798990E-1
1.860998594E1,-2.247984171E0,1.356120855E-1,-3.200933933E-1
1.863498281E1,-2.155132532E0,4.752531648E-1,-2.834414840E-1
1.865500469E1,-2.168571472E0,8.332201838E-1,-3.298672140E-1
1.868000156E1,-2.062281132E0,1.229060888E0,-3.433062732E-1
1.870499688E1,-1.831373930E0,1.409876943E0,-4.361577928E-1
1.872999375E1,-1.610240817E0,9.896016717E-1,-4.923573732E-1
1.875499062E1,-1.194852352E0,7.391469479E-1,-2.626720369E-1
1.877998750E1,-9.431759119E-1,5.387831330E-1,-2.357939780E-1
1.880000781E1,-6.267477274E-1,3.762929738E-1,-1.661553383E-1
1.882500625E1,-4.508185387E-1,2.064724565E-1,-1.881464869E-1
1.885000312E1,-2.076941729E-1,-1.343903542E-1,-9.529497474E-2
1.887499844E1,1.111774743E-1,-6.462954283E-1,-7.819075137E-2
1.889999531E1,5.900958180E-1,-8.833111525E-1,1.099557430E-1
1.892499062E1,8.417723179E-1,-1.001819015E0,2.052507252E-1
1.894998750E1,9.981538057E-1,-8.943067193E-1,3.262020350E-1
1.897498438E1,1.266934514E0,-9.761626720E-1,2.394591719E-1
1.899998125E1,1.684766293E0,-1.070235848E0,2.333505154E-1
1.902000313E1,1.893682241E0,-1.108109593E0,2.516764700E-1
1.904500000E1,1.891238809E0,-1.255938888E0,1.172861233E-1
1.906999688E1,2.039068222E0,-1.100779176E0,2.687807009E-2
1.909499219E1,1.908342957E0,-8.442157507E-1,-7.452555746E-2
1.911998906E1,1.794722080E0,-8.002334833E-1,-1.001819000E-1
1.914001562E1,1.759291887E0,-8.735373020E-1,-2.809980139E-2
1.916497656E1,2.107485056E0,-7.220426798E-1,-2.809980139E-2
1.918499844E1,2.256536245E0,-9.199630618E-1,-9.896016866E-2
1.920999531E1,2.261423111E0,-9.016370773E-1,-2.357939780E-1
1.923499063E1,2.002416134E0,-7.244861722E-1,-2.040289938E-1
1.925998906E1,1.788613439E0,-6.707300544E-1,-4.398229718E-2
1.928498281E1,1.927890658E0,-5.192354321E-1,1.160643920E-1
1.930998125E1,1.808161139E0,-6.169738770E-1,1.783726513E-1
1.933000312E1,1.653001308E0,-5.778785348E-1,5.742133036E-2
1.935001562E1,1.142318010E0,-2.528982162E-1,-1.270599663E-1
1.937499063E1,6.939429045E-1,-1.111774743E-1,-9.529497474E-2
1.939998594E1,5.229006410E-1,-2.296853215E-1,-6.475171447E-2
1.942002500E1,2.761110961E-1,-5.387831330E-1,-1.466076542E-2
1.944500469E1,-2.089159042E-1,-2.944370508E-1,2.565634064E-2
1.947000312E1,-2.907718420E-1,1.685988009E-1,-1.820378453E-1
1.949499844E1,-2.101376355E-1,2.076941729E-2,-1.429424584E-1
1.951999531E1,-2.907718420E-1,-4.642575979E-2,-1.014036313E-1
1.954499062E1,-5.815436840E-1,2.003637999E-1,-1.991420686E-1
1.956998750E1,-7.538077235E-1,2.993239760E-1,-2.162462920E-1
1.959498438E1,-9.822713137E-1,6.621779203E-1,-1.966986060E-1
1.961998125E1,-1.145983219E0,7.843509912E-1,-1.356120855E-1
1.964000469E1,-1.134987593E0,5.619960427E-1,-1.844813079E-1
1.966500000E1,-1.067792416E0,5.571091175E-1,-2.981022298E-1
1.968999688E1,-1.194852352E0,4.789183438E-1,-1.930334121E-1
1.971499219E1,-1.257160664E0,4.386012256E-1,1.062905490E-1
1.973998906E1,-1.436755061E0,6.597344279E-1,2.089159042E-1
1.976498594E1,-1.569923639E0,8.271115422E-1,1.356120855E-1
1.978998281E1,-1.795943737E0,7.489207983E-1,7.086037099E-2
1.981000469E1,-1.964542627E0,1.104444385E0,1.050688177E-1
1.983500156E1,-2.205223560E0,9.932668805E-1,1.710422710E-2
1.985999844E1,-2.359161615E0,8.344419003E-1,-1.050688177E-1
1.988499375E1,-2.472782373E0,1.139874578E0,-1.624901593E-1
1.990998906E1,-2.419026375E0,1.132544160E0,-3.396410644E-1
1.993498594E1,-2.414139509E0,9.737191796E-1,-2.773328125E-1
1.995998438E1,-2.169793367E0,7.171558142E-1,-3.237585723E-1
1.998001875E1,-1.930334091E0,4.129449129E-1,-2.492330223E-1
2.000500156E1,-1.347568750E0,5.742133036E-2,-2.663372457E-1
2.002999844E1,-1.125213742E0,-2.443460934E-2,-2.223549485E-1
2.005000312E1,-8.796459436E-1,-1.160643920E-1,-3.164281845E-1
2.007498594E1,-4.141666293E-1,2.174680233E-1,-1.588249654E-1
2.009998281E1,-1.429424584E-1,2.345722467E-1,-2.541199327E-1
2.012000938E1,1.930334121E-1,2.345722467E-1,-2.761110961E-1
2.014500156E1,6.695082784E-1,-6.230825558E-2,2.565634064E-2
2.016999844E1,7.098253965E-1,-4.899139106E-1,1.295034289E-1
2.019499375E1,8.332201838E-1,-2.761110961E-1,3.347541392E-1
2.021999062E1,1.080009699E0,-7.721336484E-1,4.019493163E-1
2.024498594E1,1.412320375E0,-7.171558142E-1,2.724458873E-1
2.026998438E1,1.565036774E0,-1.301142931E0,4.007275999E-1
2.029000625E1,1.533271790E0,-1.396437883E0,2.565633953E-1
2.031500156E1,1.857030272E0,-1.125213742E0,2.687807083E-1
2.033999844E1,1.839926124E0,-1.142318010E0,2.919935882E-1
2.036499531E1,1.955990434E0,-9.395107627E-1,1.857030392E-1
2.038999219E1,2.146580458E0,-8.234463334E-1,9.285151958E-2
2.041498750E1,2.083050489E0,-1.007927656E0,1.160643920E-1
2.043998438E1,2.200336695E0,-6.181955934E-1,1.160643920E-1
2.046498125E1,2.315179348E0,-7.134906054E-1,-2.687807009E-2
2.048500313E1,2.322509527E0,-5.119050741E-1,-1.661553383E-1
2.051004531E1,1.923003793E0,-4.129449129E-1,5.375614017E-2
2.053499688E1,1.687209725E0,-2.907718420E-1,-4.886921961E-3
2.055999375E1,1.590693116E0,-3.640756905E-1,-1.356120855E-1
2.058498906E1,1.459967971E0,-4.080579877E-1,-2.370157093E-1
2.060998594E1,1.069014192E0,-4.691444933E-1,-1.404990107E-1
2.063498125E1,7.880161405E-1,-3.286454976E-1,-1.649336070E-1
2.065500469E1,7.403686643E-1,-1.942551434E-1,-1.881464869E-1
2.068004844E1,6.084218025E-1,-3.029891551E-1,2.321287990E-2
2.070499688E1,2.553416789E-1,5.253440887E-2,2.932153046E-1
2.072999375E1,-1.270599663E-1,4.691444933E-1,4.019493163E-1
2.075000781E1,-3.298672140E-1,3.750712574E-1,3.885102868E-1
2.077498125E1,-4.886921942E-1,2.773328125E-1,3.701843321E-1
2.079500312E1,-6.352998614E-1,1.343903542E-1,3.249803185E-1
2.082000000E1,-6.805038452E-1,-1.075122803E-1,1.527163088E-1
2.084499531E1,-7.061601877E-1,-7.452555746E-2,-5.131268129E-2
2.086999375E1,-7.648032904E-1,2.040289938E-1,-7.574728876E-2
2.089498906E1,-8.662068844E-1,2.907718420E-1,-3.909537569E-2
2.091998594E1,-8.417723179E-1,6.414085031E-1,2.199114859E-2
2.094498125E1,-8.735373020E-1,9.004153609E-1,7.330382708E-3
2.096500469E1,-1.043357849E0,1.192408919E0,8.552113175E-2
2.099000156E1,-1.406211734E0,1.284038782E0,1.209513173E-1
2.101001094E1,-1.633453608E0,1.519832730E0,-6.475171447E-2
2.103498750E1,-2.012190104E0,1.396437883E0,-2.028072625E-1
2.105998594E1,-2.208888769E0,1.102000833E0,-3.616322279E-1
2.108498125E1,-2.311514139E0,7.147123218E-1,-3.665191531E-1
2.110500312E1,-2.298074961E0,2.675589621E-1,-6.389650106E-1
2.113000000E1,-2.305405378E0,1.685988009E-1,-5.571091175E-1
2.115499688E1,-2.238210201E0,2.944370508E-1,-5.803219676E-1
2.117999375E1,-2.228436470E0,4.129449129E-1,-5.204572082E-1
2.120498906E1,-2.175901890E0,9.492845535E-1,-4.422664344E-1
2.122998594E1,-2.008524895E0,9.615018964E-1,-5.571091175E-1
2.125498125E1,-1.572367072E0,9.065240026E-1,-6.951646209E-1
2.127500469E1,-1.342681766E0,4.679227769E-1,-7.269296050E-1
2.130000469E1,-9.162978530E-1,1.160643920E-1,-5.375614166E-1
2.132499688E1,-5.241223574E-1,-2.247984111E-1,-3.787364364E-1
2.134999375E1,-3.714060783E-1,-6.841690838E-2,-3.237585723E-1
2.137498906E1,9.040805697E-2,3.543018550E-2,-2.101376355E-1
2.139998906E1,6.682865620E-1,-2.296853215E-1,-8.063421398E-2
2.142498281E1,9.651670456E-1,-6.035348773E-1,-2.443460934E-2
2.144500469E1,1.171639562E0,-5.974261761E-1,5.742133036E-2
2.147000156E1,1.358564258E0,-8.833111525E-1,1.172861233E-1
2.149499844E1,1.539380431E0,-6.194173694E-1,1.404990107E-1
2.151999688E1,1.590693116E0,-9.101892114E-1,7.941248268E-2
2.154499062E1,1.566258430E0,-8.808676600E-1,1.050688177E-1
2.156998750E1,1.475850463E0,-1.148426652E0,2.309070528E-1
2.159002031E1,1.430646420E0,-1.142318010E0,4.080579877E-1
2.161003281E1,1.602910399E0,-1.143539667E0,4.043927789E-1
2.163499688E1,1.987755537E0,-1.277930021E0,3.530800939E-1
2.165999375E1,2.050063848E0,-1.150870085E0,1.722639948E-1
2.168499062E1,2.367713690E0,-7.916813493E-1,3.909537569E-2
2.171002031E1,2.508212566E0,-6.401867867E-1,-1.624901593E-1
2.173498281E1,2.130697966E0,-4.581489265E-1,-2.834414840E-1
2.175500469E1,1.810604572E0,-2.553416789E-1,-8.552113175E-2
2.178000312E1,1.655444741E0,-1.551597714E-1,1.832595766E-1
2.180499844E1,1.309695125E0,-5.387831330E-1,8.552113175E-2
2.182999531E1,1.299921274E0,-5.754350424E-1,7.452555746E-2
2.185499063E1,1.286482215E0,-4.532620013E-1,-1.099557430E-1
2.187998750E1,1.197295904E0,-4.691444933E-1,-1.991420686E-1
2.190498438E1,9.053022861E-1,-5.033529401E-1,-1.576032341E-1
2.192998125E1,5.400048494E-1,-4.825835228E-1,-1.221730490E-3
2.195000313E1,9.040805697E-2,-1.258382350E-1,1.392772794E-1
2.197500000E1,-2.736676335E-1,3.665191354E-3,1.417207420E-1
2.200004062E1,-1.600466967E-1,1.942551434E-1,-1.075122803E-1
2.202499219E1,-2.724458873E-1,1.441641897E-1,-1.600466967E-1
2.205000156E1,-4.031710625E-1,1.209513173E-1,-1.404990107E-1
2.207498438E1,-5.436700583E-1,3.335324228E-1,-2.113593668E-1
2.209998125E1,-5.693264008E-1,5.705481172E-1,-1.783726513E-1
2.212000469E1,-5.681046844E-1,7.110471129E-1,-1.233947799E-1
2.214500000E1,-7.819074988E-1,8.576548100E-1,-1.380555481E-1
2.216999688E1,-1.108109593E0,7.244861722E-1,-1.918116808E-1
2.219499375E1,-1.296256065E0,7.122688890E-1,-2.333505154E-1
2.221999531E1,-1.523497939E0,5.729916096E-1,-1.710422635E-1
2.224498594E1,-1.739744186E0,6.524040699E-1,-2.687807083E-1
2.226998281E1,-1.665218592E0,7.367034554E-1,-2.712241709E-1
2.229000469E1,-1.696983576E0,7.269296050E-1,-2.687807083E-1
2.231500156E1,-1.799608946E0,7.244861722E-1,-2.663372457E-1
2.233999844E1,-1.886351824E0,5.827654600E-1,-2.651154995E-1
2.236499375E1,-1.942551494E0,1.058018565E0,-2.516764700E-1
2.238999063E1,-2.031737804E0,9.358455539E-1,-3.335324228E-1
2.241498750E1,-1.998751044E0,9.676105380E-1,-4.654793143E-1
2.243998438E1,-2.021963835E0,7.709119320E-1,-4.972442985E-1
2.246000625E1,-1.988977194E0,7.208209634E-1,-4.080579877E-1
2.248500313E1,-1.907121301E0,7.574728727E-1,-4.544837475E-1
2.251000156E1,-1.701870561E0,6.988298297E-1,-4.373795092E-1
2.253499531E1,-1.522276163E0,1.527163088E-1,-5.595525503E-1
2.255999375E1,-1.119105101E0,-2.370157093E-1,-2.467895597E-1
2.258498750E1,-8.943067193E-1,-3.921754956E-1,-1.050688177E-1
2.260999844E1,-4.642575681E-1,-2.296853215E-1,-5.009094998E-2
2.263498125E1,-4.886921868E-2,-9.773843922E-3,4.153883457E-2
2.265500312E1,2.516764700E-1,4.886921961E-3,5.619960278E-2
2.268000156E1,5.412266254E-1,-2.932153046E-1,9.162978828E-2
2.270001563E1,6.817256212E-1,-7.024950385E-1,-1.832595654E-2
2.272498750E1,9.834930301E-1,-5.876523852E-1,1.857030392E-1
2.274998438E1,1.178969860E0,-9.370672703E-1,1.881464869E-1
2.277000781E1,1.361007690E0,-8.148941994E-1,1.539380401E-1
2.279500312E1,1.692096710E0,-8.356636167E-1,2.138028294E-1
2.282000000E1,1.886351824E0,-7.452555895E-1,3.543018550E-2
2.284499531E1,2.090380907E0,-7.843509912E-1,1.221730467E-2
2.286999219E1,2.260201454E0,-8.894197941E-1,3.665191308E-2
2.289498750E1,2.337170362E0,-7.819074988E-1,-3.543018550E-2
2.291998438E1,2.146580458E0,-8.051204085E-1,6.108652335E-3
2.294498125E1,2.114815474E0,-7.843509912E-1,1.404990107E-1
2.296500313E1,2.025629044E0,-7.880161405E-1,2.260201424E-1
2.299000156E1,1.995085835E0,-4.801400900E-1,2.052507252E-1
2.301499688E1,1.892460465E0,-3.860668242E-1,1.185078546E-1
2.303999375E1,1.935221076E0,-5.962044597E-1,2.321287990E-2
2.306498906E1,1.775174379E0,-7.086036801E-1,1.368338168E-1
2.308998594E1,1.574810624E0,-5.876523852E-1,1.246165112E-1
2.311498281E1,1.445307136E0,-5.852088928E-1,-1.466076523E-1
2.313500469E1,1.273043156E0,-4.251621962E-1,-1.698205322E-1
2.316000156E1,9.187412858E-1,-3.897320330E-1,0.000000000E0
2.318499844E1,6.780604124E-1,-3.310889602E-1,-1.673770696E-1
2.321002500E1,5.363397002E-1,-4.349360466E-1,-3.371976018E-1
2.323499063E1,2.565634064E-2,-1.942551434E-1,-2.541199327E-1
2.325998750E1,-2.809980214E-1,2.748893499E-1,-2.638937831E-1
2.328498438E1,-2.919935882E-1,2.919935882E-1,-3.701843321E-1
2.330500625E1,-4.312708676E-1,4.214970171E-1,-2.687807083E-1
2.333002969E1,-5.595525503E-1,4.300491214E-1,-2.406809032E-1
2.335499844E1,-8.991936445E-1,2.113593668E-1,-2.419026345E-1
2.337999531E1,-7.501425147E-1,6.963863969E-2,-3.909537494E-1
2.340499219E1,-8.063421249E-1,1.001819000E-1,-2.406809032E-1
2.342999219E1,-1.095892191E0,3.982841372E-1,-6.841690838E-2
2.345498438E1,-1.183856845E0,5.326744914E-1,-7.696902007E-2
2.347998125E1,-1.169196010E0,4.862487316E-1,-3.909537569E-2
2.350000313E1,-1.233947754E0,6.817256212E-1,8.796459436E-2
2.352500000E1,-1.479515553E0,9.969320893E-1,9.407324344E-2
2.355002188E1,-1.700648785E0,1.141096234E0,-4.276056588E-2
2.357499219E1,-1.982868552E0,1.158200502E0,-1.551597714E-1
2.359999375E1,-2.177123785E0,1.244943380E0,-1.441641897E-1
2.362498594E1,-2.290744543E0,1.314581990E0,-2.040289938E-1
2.364998750E1,-2.364048481E0,1.369559884E0,-2.443460971E-1
2.367000469E1,-2.375044107E0,1.153313518E0,-3.860668242E-1
2.369500156E1,-2.320066214E0,8.600982428E-1,-4.886921942E-1
2.371999844E1,-2.223549366E0,8.454374671E-1,-5.204572082E-1
2.374499375E1,-2.114815474E0,7.012732625E-1,-5.241223574E-1
2.376999063E1,-1.924225450E0,6.988298297E-1,-4.618141055E-1
2.379498594E1,-1.745852828E0,1.991420686E-1,-4.923573732E-1
2.381998438E1,-1.485624313E0,-4.471533597E-1,-3.359758854E-1
2.384000625E1,-1.105666041E0,-5.974261761E-1,-1.441641897E-1
2.386500156E1,-7.024950385E-1,-3.799581826E-1,1.307251602E-1
2.388999844E1,-4.092797041E-1,-2.235766798E-1,1.038470864E-1
2.391002344E1,-3.420845419E-2,5.864306167E-2,2.956587672E-1
2.393498594E1,3.298672140E-1,-1.185078546E-1,3.396410644E-1
2.395998281E1,7.916813493E-1,-1.453859210E-1,4.557054639E-1
2.398000469E1,9.480628371E-1,-2.785545588E-1,5.119050741E-1
2.400500156E1,1.143539667E0,-3.469714522E-1,4.960225821E-1
2.402999844E1,1.317025423E0,-5.400048494E-1,5.082398653E-1
2.405499375E1,1.446528912E0,-8.307766914E-1,5.436700583E-1
2.407999062E1,1.618792892E0,-9.285151362E-1,5.497786999E-1
2.410498594E1,1.822821856E0,-8.735373020E-1,5.045746565E-1
2.412998438E1,1.923003793E0,-9.162978530E-1,5.436700583E-1
2.415000781E1,2.133141518E0,-8.625417352E-1,4.801400900E-1
2.417500156E1,2.124589205E0,-7.929030657E-1,4.544837475E-1
2.420000625E1,2.048841953E0,-6.084218025E-1,3.665191531E-1
2.422499531E1,2.177123785E0,-3.970623910E-1,1.612684280E-1
2.425000469E1,2.267531872E0,-4.923573732E-1,1.038470864E-1
2.427498750E1,2.337170362E0,-3.005456924E-1,1.954768747E-1
2.429998438E1,2.118480682E0,-4.825835228E-1,1.954768747E-1
2.431999531E1,1.841147780E0,-4.483750761E-1,-1.148426607E-1
2.433999844E1,1.634675384E0,-1.111774743E-1,-2.260201424E-1
2.436499375E1,1.336573124E0,1.698205322E-1,-1.160643920E-1
2.438999375E1,1.141096234E0,3.872885704E-1,1.246165112E-1
2.441002656E1,1.073901057E0,-1.832595654E-2,2.602286041E-1
2.443497812E1,1.001819015E0,-5.925392509E-1,2.382374406E-1
2.445500000E1,8.857545853E-1,-4.337143302E-1,1.734857261E-1
2.447999688E1,4.593706429E-1,-2.138028294E-1,1.221730486E-1
2.450499375E1,5.497787148E-2,1.123992056E-1,1.514945775E-1
2.452999375E1,-1.490511149E-1,9.285151958E-2,1.734857261E-1
2.455498594E1,-2.333505154E-1,3.775147200E-1,3.042109013E-1
2.457998281E1,-2.871066630E-1,5.754350424E-1,4.080579877E-1
2.460000469E1,-5.167919993E-1,4.911356568E-1,4.532620013E-1
2.462500156E1,-7.415903807E-1,3.078760803E-1,3.701843321E-1
2.464999844E1,-7.855727077E-1,4.886921961E-3,3.885102868E-1
2.467002656E1,-6.707300544E-1,8.918632567E-2,3.958406746E-1
2.469498438E1,-5.131267905E-1,3.371976018E-1,2.333505154E-1
2.471998281E1,-7.574728727E-1,2.541199327E-1,7.208209485E-2
2.474000938E1,-9.810495973E-1,4.654793143E-1,-1.588249654E-1
2.476500000E1,-1.122770309E0,7.403686643E-1,-3.469714522E-1
2.478999688E1,-1.106887817E0,8.845328689E-1,-2.614503205E-1
2.481499375E1,-1.563814998E0,7.476990223E-1,-1.930334121E-1
2.483999063E1,-1.846034765E0,8.454374671E-1,-1.661553383E-1
2.486498594E1,-1.833817482E0,1.145983219E0,1.221730467E-2
2.488998281E1,-1.805717587E0,1.317025423E0,6.230825558E-2
2.491002344E1,-1.854586840E0,1.497841597E0,-5.253440887E-2
2.493500156E1,-2.180788994E0,1.021366715E0,-2.064724565E-1
2.495999844E1,-2.313957453E0,6.780604124E-1,-1.979203373E-1
2.498499375E1,-2.241875410E0,3.885102868E-1,-2.675589621E-1
2.500999062E1,-2.130697966E0,2.736676335E-1,-2.687807083E-1
2.503498750E1,-1.938886285E0,1.771509200E-1,-2.003637999E-1
2.505998438E1,-1.709200978E0,1.148426607E-1,-1.466076523E-1
2.508000625E1,-1.398881435E0,2.492330223E-1,-1.258382350E-1
2.510500156E1,-1.054353356E0,-4.960225821E-1,-1.966986060E-1
2.513000000E1,-7.513642311E-1,-4.092797041E-1,-8.552113175E-2
2.515499531E1,-5.180137157E-1,-3.481931984E-1,-5.497787148E-2
2.517999219E1,-1.869247556E-1,6.108652428E-2,5.742133036E-2
2.520001094E1,-1.221730490E-3,9.773843922E-3,1.136209369E-1
2.522497969E1,2.211332172E-1,-3.506366313E-1,1.270599663E-1
2.524500156E1,5.070181489E-1,-3.640756905E-1,1.771509200E-1
2.526999844E1,1.001819015E0,-5.155702829E-1,4.117231667E-1
2.529499375E1,1.166752577E0,-6.426302195E-1,3.640756905E-1
2.531999063E1,1.357342601E0,-6.719517708E-1,3.860668242E-1
2.534498750E1,1.326799273E0,-5.155702829E-1,3.457497358E-1
2.536998438E1,1.361007690E0,-6.426302195E-1,2.736676335E-1
2.539000625E1,1.502728462E0,-8.442157507E-1,2.333505154E-1
2.541003906E1,1.721418262E0,-9.321803451E-1,1.649336070E-1
2.543499375E1,1.991420627E0,-8.173376918E-1,7.574728876E-2
2.545999063E1,1.826487064E0,-1.166752577E0,9.285151958E-2
2.548498594E1,1.847256422E0,-1.087340117E0,1.930334121E-1
2.550998281E1,1.948660135E0,-1.076344490E0,1.722639948E-1
2.553000625E1,1.980425119E0,-7.073819637E-1,4.764748737E-2
2.555500156E1,1.944994926E0,-7.061601877E-1,-9.896016866E-2
2.558000000E1,1.843591332E0,-9.187412858E-1,-1.844813079E-1
2.560499531E1,1.743409395E0,-6.072000265E-1,-2.614503205E-1
2.562999219E1,1.651779652E0,-3.567453027E-1,-1.514945775E-1
2.565498750E1,1.466076612E0,-2.357939780E-1,-1.136209369E-1
2.567998438E1,1.428202868E0,-2.113593668E-1,-1.282816976E-1
2.570000625E1,1.354899049E0,-1.869247556E-1,-1.209513173E-1
2.572500312E1,1.065348983E0,-1.527163088E-1,-1.331686229E-1
2.575000000E1,6.365215778E-1,-3.127630055E-1,-2.932153083E-2
2.577499531E1,1.759291887E-1,-3.115412593E-1,5.253440887E-2
2.579999219E1,8.674286306E-2,-2.675589621E-1,-8.552113548E-3
2.582498906E1,2.565634064E-2,-2.284636050E-1,2.076941729E-2
2.584998594E1,-1.417207420E-1,-2.174680233E-1,1.282816976E-1
2.587498125E1,-3.457497358E-1,-1.014036313E-1,9.651670605E-2
2.589500313E1,-4.935791194E-1,-1.123992056E-1,1.453859210E-1
2.592000000E1,-5.754350424E-1,-6.108652335E-3,2.101376355E-1
2.594499688E1,-6.243042946E-1,4.117231667E-1,9.407324344E-2
2.596999375E1,-7.403686643E-1,2.247984111E-1,6.841690838E-2
2.599498906E1,-8.918632269E-1,4.422664344E-1,1.038470864E-1
2.601998750E1,-1.134987593E0,5.656611919E-1,5.986479297E-2
2.603999688E1,-1.339016557E0,6.743952036E-1,-4.642575979E-2
2.606000000E1,-1.308473349E0,1.067792416E0,-2.089159042E-1
2.608499531E1,-1.448972344E0,5.632177591E-1,-4.007275999E-1
2.611002031E1,-1.632231951E0,7.342600226E-1,-4.141666293E-1
2.613002344E1,-1.857030272E0,4.764748812E-1,-4.813618064E-1
2.615497969E1,-1.986533761E0,1.954768747E-1,-5.375614166E-1
2.617500156E1,-2.127032757E0,2.406809032E-1,-5.473352671E-1
2.620000156E1,-2.064724445E0,5.668829679E-1,-4.618141055E-1
2.622499531E1,-2.030516148E0,8.271115422E-1,-5.094615817E-1
2.624999219E1,-1.975538135E0,8.759807348E-1,-5.571091175E-1
2.627498750E1,-1.964542627E0,9.908233881E-1,-7.147123218E-1
2.629998438E1,-2.052507162E0,9.663888216E-1,-7.843509912E-1
2.632498125E1,-2.020742178E0,1.092227101E0,-7.489207983E-1
2.634500312E1,-2.003638029E0,1.059240341E0,-6.169738770E-1
2.637000000E1,-1.897347450E0,6.792821288E-1,-7.232644558E-1
2.639499531E1,-1.413542151E0,2.150245607E-1,-4.776966274E-1
2.642001562E1,-1.114218235E0,-6.780604124E-1,-5.412266254E-1
2.644498906E1,-5.558873415E-1,-6.963863969E-1,-2.638937831E-1
2.646998594E1,-1.979203373E-1,-4.752531648E-1,-2.724458873E-1
2.649498125E1,1.502728462E-1,2.419026345E-1,-1.649336070E-1
2.651500313E1,3.616322279E-1,3.225368559E-1,-7.819075137E-2
2.654000000E1,6.951646209E-1,1.869247556E-1,2.932153083E-2
2.656000625E1,8.588765264E-1,2.199114859E-2,7.330382615E-2
2.658498750E1,1.093448758E0,2.211332172E-1,2.919935882E-1
2.661003125E1,1.231504321E0,-6.352998316E-2,2.956587672E-1
2.663498125E1,1.466076612E0,-2.687807083E-1,2.785545588E-1
2.665500312E1,1.620014548E0,-4.960225821E-1,3.176499307E-1
2.668000000E1,1.780061245E0,-9.285151362E-1,2.174680233E-1
2.670001563E1,1.929112434E0,-7.794640660E-1,2.687807083E-1
2.672498594E1,1.830152273E0,-1.108109593E0,2.883283794E-1
2.675000781E1,2.089159012E0,-9.822713137E-1,2.785545588E-1
2.677497969E1,1.919338584E0,-1.017701507E0,5.009095073E-1
2.679500156E1,2.046398640E0,-7.061601877E-1,6.426302195E-1
2.681999844E1,2.123367548E0,-2.638937831E-1,7.513642311E-1
2.684499531E1,2.205223560E0,-4.337143302E-1,5.326744914E-1
2.686999219E1,2.207666874E0,-2.577851415E-1,2.333505154E-1
2.688999844E1,2.026850939E0,-4.337143302E-1,1.747074574E-1
2.691000469E1,1.750739813E0,-2.541199327E-1,1.258382350E-1
2.693500156E1,1.528384805E0,-2.565633953E-1,6.108652335E-3
2.695999844E1,1.459967971E0,-3.054326177E-1,-8.552113175E-2
2.698499375E1,1.247386813E0,-2.333505154E-1,-1.527163088E-1
2.700999062E1,9.700539708E-1,-3.396410644E-1,-3.090977967E-1
2.703498750E1,7.904596329E-1,-3.665191308E-2,-3.005456924E-1
2.705998438E1,6.120869517E-1,-1.185078546E-1,-1.356120855E-1
2.708000625E1,3.555235565E-1,-4.520402849E-2,-1.075122803E-1
2.710500313E1,-2.443460980E-3,-8.796459436E-2,-2.260201424E-1
2.712999844E1,-2.113593668E-1,3.933972120E-1,-3.237585723E-1
2.715499531E1,-3.628539443E-1,1.136209369E-1,2.321287990E-2
2.717999219E1,-4.080579877E-1,-4.886921868E-2,3.604104817E-1
2.720498750E1,-4.935791194E-1,-2.809980139E-2,3.824016452E-1
2.722998594E1,-4.813618064E-1,3.042109013E-1,3.176499307E-1
2.725498125E1,-6.780604124E-1,4.019493163E-1,1.783726513E-1
2.727500312E1,-7.843509912E-1,3.225368559E-1,9.285151958E-2
2.730002500E1,-8.417723179E-1,4.190535545E-1,-2.932153083E-2
2.732499688E1,-9.101892114E-1,8.686503768E-1,1.148426607E-1
2.734999844E1,-1.077566266E0,9.847147465E-1,2.028072625E-1
2.737498906E1,-1.102000833E0,1.023810148E0,2.809980139E-2
2.739998594E1,-1.221730471E0,1.126435518E0,-2.443460980E-3
2.742498281E1,-1.474628687E0,1.281595230E0,6.963863969E-2
2.744500469E1,-1.566258430E0,1.166752577E0,6.963863969E-2
2.747002031E1,-1.635897160E0,9.334020615E-1,1.710422710E-2
2.749499688E1,-1.620014548E0,7.623597980E-1,-4.764748737E-2
2.751999375E1,-1.999972820E0,3.787364364E-1,-1.759291887E-1
2.754000625E1,-2.134363174E0,3.433062732E-1,-1.808161139E-1
2.756498125E1,-2.196671486E0,-1.233947799E-1,2.565634064E-2
2.758500312E1,-2.179567099E0,9.407324344E-2,4.764748737E-2
2.761000000E1,-2.445904493E0,4.825835228E-1,-2.296853215E-1
2.763499688E1,-2.503325701E0,5.888741016E-1,-3.616322279E-1
2.765999375E1,-2.193006277E0,5.192354321E-1,-1.319468915E-1
2.768498906E1,-1.718974829E0,2.040289938E-1,-1.734857261E-1
2.770999219E1,-1.560149789E0,2.675589621E-1,-2.064724565E-1
2.773498125E1,-1.296256065E0,3.005456924E-1,-2.125810981E-1
2.775500469E1,-9.101892114E-1,1.356120855E-1,-9.529497474E-2
2.778000156E1,-4.227187335E-1,-2.504547536E-1,-3.787364438E-2
2.780499688E1,1.771509200E-1,-7.513642311E-1,1.001819000E-1
2.782999531E1,3.127630055E-1,-8.222246170E-1,8.918632567E-2
2.785499063E1,9.358455539E-1,-6.352998614E-1,8.552113175E-2
2.787998750E1,1.732413769E0,-7.757988572E-1,1.893682182E-1
2.790498281E1,2.030516148E0,-5.314527750E-1,2.235766798E-1
2.792500469E1,1.826487064E0,-4.056145251E-1,2.333505154E-1
2.795000313E1,1.516167521E0,-4.398229718E-2,2.577851415E-1
2.797499844E1,1.534493446E0,-2.687807009E-2,2.724458873E-1
2.799999531E1,1.910786510E0,-4.483750761E-1,4.105014503E-1
2.802499062E1,2.142915249E0,-6.633996367E-1,3.139847219E-1
2.804998750E1,2.035403013E0,-5.803219676E-1,2.382374406E-1
2.807498438E1,1.795943737E0,-6.145304441E-1,2.541199327E-1
2.809998281E1,2.116037130E0,-5.705481172E-1,3.665191531E-1
2.812000312E1,2.087937355E0,-8.332201838E-1,4.422664344E-1
2.814500000E1,1.822821856E0,-7.452555895E-1,4.300491214E-1
2.817002031E1,1.650557876E0,-1.131322384E0,4.019493163E-1
2.819499219E1,1.611462474E0,-9.627236128E-1,2.138028294E-1
2.821998906E1,1.620014548E0,-5.290092826E-1,4.886921868E-2
2.824498594E1,1.729970336E0,-8.063421398E-2,-5.253440887E-2
2.826998281E1,1.609019041E0,-1.563815027E-1,-9.529497474E-2
2.829000469E1,1.458746195E0,-7.208209485E-2,-1.734857261E-1
2.831500156E1,1.017701507E0,-2.638937831E-1,-1.734857261E-1
2.833999844E1,7.281513810E-1,-1.771509200E-1,-1.392772794E-1
2.836499375E1,4.605923891E-1,-1.991420686E-1,-1.869247556E-1
2.838999063E1,2.809980214E-1,-2.577851415E-1,-2.773328125E-1
2.841498594E1,-1.087340117E-1,-2.687807083E-1,-2.492330223E-1
2.843998281E1,-4.593706429E-1,-1.539380401E-1,-1.026253626E-1
2.846000625E1,-5.949827433E-1,-1.123992056E-1,-2.809980139E-2
2.848500156E1,-5.791002512E-1,-2.406809032E-1,2.199114859E-2
2.850999844E1,-5.913175344E-1,-1.490511149E-1,8.063421398E-2
2.853499531E1,-6.243042946E-1,1.429424584E-1,1.209513173E-1
2.855999062E1,-5.974261761E-1,4.361577928E-1,1.221730486E-1
2.858498750E1,-6.304129362E-1,7.012732625E-1,1.637118906E-1
2.860998594E1,-8.820893764E-1,5.962044597E-1,6.841690838E-2
2.863000625E1,-1.122770309E0,3.714060783E-1,-1.466076542E-2
2.865500312E1,-1.254717231E0,6.145304441E-1,1.099557430E-2
2.868000000E1,-1.381777167E0,6.841690540E-1,-3.787364438E-2
2.870499531E1,-1.516167521E0,7.489207983E-1,-2.443460934E-2
2.872999219E1,-1.587027907E0,8.429940343E-1,-2.932153083E-2
2.875498750E1,-1.650557876E0,1.076344490E0,-1.588249654E-1
2.877998594E1,-1.819156647E0,7.586946487E-1,-2.345722467E-1
2.880498125E1,-1.874134541E0,7.635815740E-1,-2.492330223E-1
2.882500781E1,-1.876577973E0,7.232644558E-1,-2.724458873E-1
2.885002969E1,-1.882686615E0,7.293730974E-1,-4.019493163E-1
2.887499688E1,-1.949881792E0,1.120326877E0,-3.848451078E-1
2.890002031E1,-2.094046116E0,9.859364629E-1,-3.543018401E-1
2.892498906E1,-2.135584831E0,1.282817006E0,-2.480112910E-1
2.894998594E1,-2.048841953E0,1.148426652E0,-3.103195429E-1
2.897498281E1,-1.656666517E0,7.501425147E-1,-3.628539443E-1
2.899500469E1,-1.351233959E0,-1.123992056E-1,-4.459316134E-1
2.902000156E1,-1.086118340E0,-8.515461683E-1,-6.181955934E-1
2.904499844E1,-7.391469479E-1,-8.894197941E-1,-3.579670191E-1
2.906999531E1,-5.387831330E-1,-6.389650106E-1,-2.907718420E-1
2.909499062E1,-1.722639948E-1,2.052507252E-1,-1.295034289E-1
2.911998750E1,1.734857261E-1,2.333505154E-1,-1.380555481E-1
2.914498438E1,4.324925840E-1,6.352998316E-2,2.809980139E-2
2.916500625E1,5.558873415E-1,-1.527163088E-1,6.352998316E-2
2.919000312E1,8.295549750E-1,-4.129449129E-1,9.773843922E-3
2.921499844E1,1.160643935E0,-6.829473376E-1,1.685988009E-1
2.923999531E1,1.224173903E0,-8.075638413E-1,9.162978828E-2
2.926499219E1,1.569923639E0,-8.881980777E-1,2.455678284E-1
2.928998906E1,1.568701982E0,-1.130100727E0,1.502728462E-1
2.931498438E1,1.999972820E0,-9.297369123E-1,1.404990107E-1
2.933998125E1,1.965764284E0,-1.105666041E0,1.209513173E-1
2.936000625E1,2.136806488E0,-7.293730974E-1,-2.687807009E-2
2.938500000E1,2.218662500E0,-8.637634516E-1,2.565634064E-2
2.941003594E1,2.305405378E0,-8.368853927E-1,1.368338168E-1
2.943499375E1,2.280970812E0,-6.670648456E-1,1.661553383E-1
2.945998906E1,1.997529268E0,-4.691444933E-1,6.230825558E-2
2.948498594E1,1.820378423E0,-2.370157093E-1,-1.319468915E-1
2.950998281E1,1.618792892E0,-2.370157093E-1,-3.078760803E-1
2.953000469E1,1.499063253E0,-3.933972120E-1,-3.090977967E-1
2.955500156E1,1.381777167E0,-1.368338168E-1,-1.588249579E-2
2.957999844E1,1.284038782E0,-4.801400900E-1,-1.221730467E-2
2.960499375E1,1.222952247E0,-2.687807083E-1,-7.086037099E-2
2.962999062E1,1.082453251E0,-1.771509200E-1,-7.086037099E-2
2.965002188E1,8.576548100E-1,2.687807009E-2,-4.764748737E-2
2.967497813E1,4.544837475E-1,-2.651154995E-1,4.886921961E-3
2.969500000E1,1.233947799E-1,-2.406809032E-1,1.221730490E-3
2.971999688E1,-1.295034289E-1,5.375614017E-2,1.466076542E-2
2.974499375E1,-2.040289938E-1,2.675589621E-1,2.321287841E-1
2.976999063E1,-1.417207420E-1,3.396410644E-1,2.528982162E-1
2.979498594E1,-7.819075137E-2,1.258382350E-1,2.577851415E-1
2.981998125E1,-2.480112910E-1,2.223549485E-1,2.089159042E-1
2.984000469E1,-4.080579877E-1,2.174680233E-1,1.942551434E-1
2.986500156E1,-5.448917747E-1,5.497787148E-2,1.050688177E-1
2.988999844E1,-7.086036801E-1,2.883283794E-1,6.108652335E-3
2.991499375E1,-9.346238375E-1,3.445279896E-1,8.307766914E-2
2.993999063E1,-1.158200502E0,1.808161139E-1,5.497787148E-2
2.996498594E1,-1.159422159E0,3.310889602E-1,-1.001819000E-1
2.998998594E1,-1.207069755E0,3.310889602E-1,-7.819075137E-2
3.001002344E1,-1.378111959E0,6.658431292E-1,-4.031710699E-2
3.003500156E1,-1.534493446E0,7.367034554E-1,1.221730490E-3
3.006002031E1,-1.522276163E0,9.065240026E-1,-8.063421398E-2
3.008499531E1,-1.698205352E0,9.871582389E-1,-6.352998316E-2
3.010999219E1,-1.718974829E0,1.156978726E0,-7.208209485E-2
3.013498750E1,-1.816713214E0,1.277930021E0,-9.651670605E-2
3.015998438E1,-1.901012659E0,1.231504321E0,-2.064724565E-1
3.018498125E1,-2.035403013E0,1.103222609E0,-2.797762752E-1
3.020500312E1,-1.990198970E0,1.018923163E0,-3.164281845E-1
3.023000000E1,-1.919338584E0,7.073819637E-1,-4.190535545E-1
3.025499531E1,-1.805717587E0,5.546656251E-1,-3.995058537E-1
3.027999375E1,-1.609019041E0,4.715879560E-1,-4.202752709E-1
3.030001094E1,-1.489289403E0,3.860668242E-1,-4.105014503E-1
3.032497969E1,-1.247386813E0,2.809980139E-2,-3.652974069E-1
3.034500156E1,-1.078788042E0,-1.062905490E-1,-3.286454976E-1
3.036999844E1,-7.867944241E-1,-1.991420686E-1,-2.406809032E-1
3.039499531E1,-5.583308339E-1,-1.319468915E-1,-2.150245607E-1
3.041999219E1,-2.296853215E-1,-1.172861233E-1,-1.563815027E-1
3.044498750E1,1.869247556E-1,-2.028072625E-1,-1.282816976E-1
3.046998438E1,4.874704480E-1,-3.677408695E-1,-1.136209369E-1
3.049498125E1,5.913175344E-1,-5.412266254E-1,-4.153883457E-2
3.051500313E1,8.124507666E-1,-4.117231667E-1,1.038470864E-1
3.054000000E1,1.009149313E0,-8.930850029E-1,1.478293836E-1
3.056499688E1,1.461189628E0,-9.187412858E-1,2.541199327E-1
3.058999375E1,1.610240817E0,-9.382889867E-1,2.748893499E-1
3.061498906E1,1.776396155E0,-8.197811246E-1,1.368338168E-1
3.063998594E1,1.844812989E0,-9.248499870E-1,1.478293836E-1
3.066498125E1,1.896125674E0,-1.147204876E0,2.162462920E-1
3.068500469E1,2.123367548E0,-1.072679400E0,2.455678284E-1
3.071000156E1,2.129476309E0,-1.091005325E0,1.258382350E-1
3.073499688E1,1.987755537E0,-8.222246170E-1,-2.443460934E-2
3.076000312E1,1.993864179E0,-6.817256212E-1,-1.062905490E-1
3.078499063E1,1.846034765E0,-4.972442985E-1,-3.176499158E-2
3.080998750E1,1.596801758E0,-4.117231667E-1,-1.050688177E-1
3.083498281E1,1.535715222E0,-3.799581826E-1,-1.966986060E-1
3.085500469E1,1.508837104E0,-4.178318083E-1,-4.239404798E-1
3.088000312E1,1.522276163E0,-2.443460971E-1,-5.155702829E-1
3.090499844E1,1.369559884E0,-5.131267905E-1,-3.933972120E-1
3.092999531E1,1.251052022E0,-6.450737119E-1,-3.176499307E-1
3.095499062E1,9.773843884E-1,-7.281513810E-1,-2.480112910E-1
3.097998750E1,6.707300544E-1,-3.897320330E-1,-1.649336070E-1
3.100498438E1,4.263839424E-1,-2.541199327E-1,-1.123992056E-1
3.102998125E1,2.309070528E-1,-4.153883457E-2,-9.162978828E-2
3.105000938E1,8.063421398E-2,-6.719517708E-2,-1.246165112E-1
3.107500000E1,-3.787364438E-2,-3.543018550E-2,-1.246165112E-1
3.110001094E1,-1.392772794E-1,4.886921868E-2,-3.909537569E-2
3.112499219E1,-2.443460971E-1,-3.298672289E-2,1.099557430E-2
3.115002031E1,-3.323106766E-1,1.258382350E-1,-6.963863969E-2
3.117498594E1,-3.762929738E-1,4.153883457E-1,-8.063421398E-2
3.119998125E1,-4.349360466E-1,4.495968223E-1,-4.886921868E-2
3.122000469E1,-5.668829679E-1,3.982841372E-1,4.886921868E-2
3.124500156E1,-7.721336484E-1,3.933972120E-1,9.285151958E-2
3.126999688E1,-8.857545853E-1,5.229006410E-1,-3.787364438E-2
3.129499375E1,-9.199630618E-1,5.962044597E-1,-1.478293836E-1
3.131998906E1,-1.147204876E0,5.864306092E-1,-1.197295859E-1
3.134498594E1,-1.269377947E0,6.255260110E-1,-1.026253626E-1
3.136998281E1,-1.451415777E0,5.827654600E-1,-1.111774743E-1
3.139000781E1,-1.528384805E0,7.379252315E-1,-1.392772794E-1
3.141001094E1,-1.626123309E0,9.101892114E-1,-6.719517708E-2
3.143499375E1,-1.782504797E0,7.721336484E-1,-9.773843735E-2
3.146003594E1,-1.882686615E0,1.028697014E0,-1.148426607E-1
3.148498594E1,-1.943773150E0,9.162978530E-1,-1.514945775E-1
3.150998125E1,-1.990198970E0,6.963863969E-1,-2.761110961E-1
3.153000469E1,-2.068389654E0,6.829473376E-1,-2.895501256E-1
3.155500000E1,-2.002416134E0,6.609562039E-1,-2.748893499E-1
3.157999844E1,-1.893682241E0,7.086036801E-1,-1.966986060E-1
3.160499375E1,-1.866804123E0,5.571091175E-1,-3.103195429E-1
3.162999062E1,-1.704313993E0,7.367034554E-1,-3.323106766E-1
3.165498594E1,-1.478293896E0,7.232644558E-1,-2.260201424E-1
3.167998438E1,-1.119105101E0,6.475171447E-1,-9.285151958E-2
3.170000469E1,-9.944885969E-1,4.031710625E-1,-8.063421398E-2
3.172500156E1,-7.916813493E-1,3.090977967E-1,-5.375614017E-2
3.174999844E1,-4.984660447E-1,2.199114859E-1,-2.076941729E-2
3.177499531E1,-1.136209369E-1,-4.764748737E-2,-1.307251602E-1
3.179999063E1,2.186897546E-1,-2.700024247E-1,-7.941248268E-2
3.182498750E1,6.023131013E-1,-7.745771408E-1,-3.298672289E-2
3.184998438E1,7.513642311E-1,-7.330383062E-1,8.307766914E-2
3.187498125E1,9.468411207E-1,-5.803219676E-1,2.602286041E-1
3.189500313E1,1.073901057E0,-4.398229718E-1,3.042109013E-1
3.192000000E1,1.320690632E0,-5.900958180E-1,1.954768747E-1
3.194499531E1,1.561371565E0,-7.550294399E-1,1.918116808E-1
3.196999219E1,1.662775159E0,-9.492845535E-1,2.162462920E-1
3.199498906E1,1.573588848E0,-1.148426652E0,3.824016452E-1
3.202002344E1,1.485624313E0,-9.040805697E-1,5.632177591E-1
3.204498125E1,1.621236324E0,-9.114109278E-1,5.155702829E-1
3.206500313E1,1.912008166E0,-5.595525503E-1,3.310889602E-1
3.209000156E1,2.007303238E0,-8.295549750E-1,2.333505154E-1
3.211499688E1,2.144136906E0,-6.414085031E-1,1.062905490E-1
3.213999375E1,2.004859686E0,-6.939429045E-1,1.453859210E-1
3.216000781E1,2.014633656E0,-3.958406746E-1,7.819075137E-2
3.218498125E1,1.901012659E0,-2.638937831E-1,2.199114859E-2
3.220500313E1,1.758070111E0,-1.417207420E-1,-2.321287990E-2
3.223000000E1,1.448972344E0,-9.529497474E-2,-7.330382708E-3
3.225002188E1,1.356120825E0,-2.785545588E-1,6.108652428E-2
3.227498594E1,1.337794900E0,-4.948008358E-1,1.001819000E-1
3.230001250E1,1.265712738E0,-5.619960427E-1,2.186897546E-1
3.232502344E1,9.309586287E-1,-4.667010307E-1,1.820378453E-1
3.234997656E1,6.230825186E-1,-4.911356568E-1,1.111774743E-1
3.236999844E1,4.361577928E-1,-4.141666293E-1,-1.343903504E-2
3.239499531E1,2.382374406E-1,-1.918116808E-1,8.918632567E-2
3.241999219E1,4.886921961E-3,3.176499158E-2,1.905899495E-1
3.244498750E1,-6.719517708E-2,1.966986060E-1,1.209513173E-1
3.246998438E1,-7.819075137E-2,-4.031710699E-2,1.466076523E-1
3.249498125E1,-1.820378453E-1,3.982841372E-1,-8.063421398E-2
3.251500312E1,-4.544837475E-1,5.510004163E-1,-1.209513173E-1
3.254000000E1,-7.086036801E-1,2.541199327E-1,-4.276056588E-2
3.256499531E1,-6.756169796E-1,2.565633953E-1,-2.211332172E-1
3.258999375E1,-6.792821288E-1,2.015855312E-1,-2.651154995E-1
3.261498906E1,-9.834930301E-1,1.820378453E-1,-1.844813079E-1
3.263998594E1,-1.102000833E0,5.180137157E-1,-2.883283794E-1
3.266498125E1,-1.180191636E0,8.234463334E-1,-3.188716471E-1
3.268500312E1,-1.315803766E0,1.039692640E0,-2.040289938E-1
3.271000156E1,-1.447750568E0,1.087340117E0,-2.125810981E-1
3.273499688E1,-1.455080986E0,1.018923163E0,-2.553416789E-1
3.275999375E1,-1.547932506E0,1.128878951E0,-2.443460971E-1
3.278001250E1,-1.554041147E0,1.010371089E0,-2.284636050E-1
3.280498125E1,-1.756848454E0,8.698720932E-1,-3.139847219E-1
3.282503906E1,-1.780061245E0,8.100072742E-1,-3.188716471E-1
3.285000156E1,-1.918116808E0,4.300491214E-1,-2.797762752E-1
3.287499531E1,-1.877799749E0,5.180137157E-1,-3.457497358E-1
3.289999219E1,-1.907121301E0,5.241223574E-1,-2.797762752E-1
3.292498906E1,-1.969429493E0,5.546656251E-1,-2.309070528E-1
3.294998594E1,-1.857030272E0,5.534439087E-1,-1.221730486E-1
3.297498125E1,-1.704313993E0,6.963863969E-1,-2.089159042E-1
3.299500469E1,-1.567480206E0,8.014551997E-1,-2.419026345E-1
3.302000156E1,-1.440420270E0,4.899139106E-1,-3.188716471E-1
3.304499688E1,-1.152091861E0,2.138028294E-1,-2.565633953E-1
3.306999375E1,-8.918632269E-1,-4.153883457E-2,-2.113593668E-1
3.309499062E1,-5.375614166E-1,-2.883283794E-1,-7.086037099E-2
3.311998750E1,-3.249803185E-1,-1.771509200E-1,-1.832595654E-2
3.314498281E1,-1.307251602E-1,-4.886921868E-2,7.330382708E-3
3.316500469E1,4.276056588E-2,-1.759291887E-1,1.123992056E-1
3.319000313E1,3.689626157E-1,-3.115412593E-1,2.614503205E-1
3.321499844E1,5.974261761E-1,-5.681046844E-1,3.054326177E-1
3.323999531E1,8.491026759E-1,-5.155702829E-1,3.078760803E-1
3.326499062E1,1.198517561E0,-7.049384713E-1,3.298672140E-1
3.328998750E1,1.312138557E0,-8.833111525E-1,2.296853215E-1
3.331498438E1,1.610240817E0,-9.492845535E-1,2.040289938E-1
3.333998125E1,1.665218592E0,-9.077457190E-1,1.673770696E-1
3.336000312E1,1.737300754E0,-8.442157507E-1,1.991420686E-1
3.338500000E1,1.745852828E0,-7.586946487E-1,1.466076523E-1
3.341002500E1,1.907121301E0,-6.878342628E-1,1.075122803E-1
3.343499219E1,1.904677749E0,-6.450737119E-1,5.497787148E-2
3.345998906E1,1.879021525E0,-6.169738770E-1,6.475171447E-2
3.348498438E1,1.892460465E0,-9.053022861E-1,9.896016866E-2
3.350998125E1,1.933999300E0,-8.381071091E-1,5.375614017E-2
3.353000469E1,2.002416134E0,-6.181955934E-1,2.809980139E-2
3.355001250E1,1.919338584E0,-6.243042946E-1,5.864306167E-2
3.357499063E1,1.753183246E0,-5.962044597E-1,5.864306167E-2
3.359998906E1,1.705535769E0,-4.740314186E-1,-1.710422710E-2
3.361999531E1,1.579697490E0,-4.129449129E-1,-9.040805697E-2
3.364000156E1,1.464854836E0,-4.068362415E-1,-1.539380401E-1
3.366499688E1,1.248608589E0,-1.795943826E-1,-1.429424584E-1
3.368999531E1,1.061683774E0,-2.944370508E-1,-1.551597714E-1
3.371000469E1,9.297369123E-1,-2.296853215E-1,-2.480112910E-1
3.373498125E1,5.949827433E-1,-3.127630055E-1,-2.761110961E-1
3.375500312E1,2.981022298E-1,-2.333505154E-1,-2.260201424E-1
3.378000000E1,1.710422710E-2,-3.665191308E-2,-1.844813079E-1
3.380499688E1,-4.398229718E-2,-8.185594529E-2,-8.796459436E-2
3.382999375E1,-5.375614017E-2,-1.197295859E-1,-7.819075137E-2
3.385498906E1,-1.918116808E-1,3.665191354E-3,-1.246165112E-1
3.387998594E1,-3.433062732E-1,-1.832595654E-2,-9.896016866E-2
3.390498125E1,-4.740314186E-1,2.797762752E-1,6.963863969E-2
3.392500469E1,-5.791002512E-1,5.094615817E-1,2.125810981E-1
3.395000156E1,-7.428121567E-1,2.895501256E-1,3.017674387E-1
3.397499688E1,-8.906415105E-1,4.679227769E-1,1.905899495E-1
3.400001094E1,-8.344419003E-1,5.644394755E-1,1.514945775E-1
3.402499062E1,-9.700539708E-1,5.473352671E-1,1.136209369E-1
3.405002031E1,-1.045801282E0,6.878342628E-1,-9.773843922E-3
3.407498281E1,-1.226617336E0,5.180137157E-1,-1.343903504E-2
3.409500625E1,-1.357342601E0,8.564330339E-1,2.809980139E-2
3.412000469E1,-1.466076612E0,8.906415105E-1,8.552113548E-3
3.414499844E1,-1.688431501E0,6.536257863E-1,-1.808161139E-1
3.416999531E1,-1.661553383E0,7.819074988E-1,-2.748893499E-1
3.419499219E1,-1.704313993E0,6.902776957E-1,-2.504547536E-1
3.421998906E1,-1.787391663E0,7.623597980E-1,-2.247984111E-1
3.424498438E1,-1.824043632E0,7.330383062E-1,-1.722639948E-1
3.426998125E1,-1.874134541E0,6.878342628E-1,-2.834414840E-1
3.429000313E1,-1.912008166E0,5.632177591E-1,-3.188716471E-1
3.431500000E1,-2.081828833E0,4.263839424E-1,-2.186897546E-1
3.433999688E1,-2.064724445E0,3.188716471E-1,-4.398229718E-2
3.436499219E1,-1.953547001E0,1.771509200E-1,1.014036313E-1
3.438998906E1,-1.765400529E0,1.612684280E-1,1.233947799E-1
3.441000625E1,-1.466076612E0,7.330382615E-2,1.099557430E-1
3.443497656E1,-1.175304770E0,2.443460980E-3,1.307251602E-1
3.445499844E1,-7.696902156E-1,-5.253440887E-2,2.638937831E-1
3.447999688E1,-3.616322279E-1,9.773843922E-3,2.797762752E-1
3.450499219E1,-1.844813079E-1,-4.153883457E-2,3.213151097E-1
3.452998906E1,1.197295859E-1,2.101376355E-1,5.082398653E-1
3.455498438E1,3.677408695E-1,-5.619960278E-2,4.886921942E-1
3.457998125E1,5.057964325E-1,-2.003637999E-1,3.946189284E-1
3.460000469E1,6.377432942E-1,-4.214970171E-1,3.433062732E-1
3.462500000E1,8.503243923E-1,-5.216789246E-1,2.956587672E-1
3.465000625E1,1.126435518E0,-6.768386960E-1,2.590068579E-1
3.467499219E1,1.345125198E0,-7.855727077E-1,1.991420686E-1
3.469998906E1,1.545489073E0,-7.538077235E-1,1.612684280E-1
3.472498438E1,1.552819371E0,-8.833111525E-1,2.687807009E-2
3.474998438E1,1.574810624E0,-8.442157507E-1,-1.258382350E-1
3.477000469E1,1.598023415E0,-9.040805697E-1,-2.162462920E-1
3.479500156E1,1.673770785E0,-8.527678847E-1,-1.857030392E-1
3.481999688E1,1.716531277E0,-8.625417352E-1,-1.673770696E-1
3.484499375E1,1.935221076E0,-5.546656251E-1,-2.003637999E-1
3.486999062E1,1.919338584E0,-6.829473376E-1,-1.295034289E-1
3.489498594E1,2.001194477E0,-5.839871764E-1,-9.773843735E-2
3.491998438E1,1.918116808E0,-6.780604124E-1,-1.099557430E-1
3.494000625E1,1.907121301E0,-6.475171447E-1,-6.719517708E-2
3.496500156E1,1.866804123E0,-4.691444933E-1,1.221730490E-3
3.498999844E1,1.648114443E0,-5.143485069E-1,5.253440887E-2
3.501001094E1,1.516167521E0,-5.412266254E-1,-3.787364438E-2
3.503498594E1,1.378111959E0,-6.377432942E-1,-1.429424584E-1
3.505998281E1,1.198517561E0,-5.546656251E-1,-2.382374406E-1
3.508000469E1,9.700539708E-1,-5.106833577E-1,-3.042109013E-1
3.510500000E1,8.173376918E-1,-5.632177591E-1,-3.579670191E-1
3.512999688E1,5.607742667E-1,-4.801400900E-1,-4.056145251E-1
3.515499375E1,2.773328125E-1,-5.351179242E-1,-3.799581826E-1
3.517999062E1,9.407324344E-2,-4.202752709E-1,-3.652974069E-1
3.520498594E1,-2.015855312E-1,-3.176499307E-1,-2.052507252E-1
3.522998281E1,-2.895501256E-1,-3.652974069E-1,-9.529497474E-2
3.525000625E1,-4.776966274E-1,-2.577851415E-1,-1.001819000E-1
3.527500156E1,-8.002334833E-1,-5.619960278E-2,-2.687807009E-2
3.530000156E1,-9.553932548E-1,2.577851415E-1,-1.123992056E-1
3.532502031E1,-1.023810148E0,4.361577928E-1,-1.893682182E-1
3.534999219E1,-1.099557400E0,5.229006410E-1,-1.270599663E-1
3.537498750E1,-1.455080986E0,8.491026759E-1,1.221730490E-3
3.539999688E1,-1.469741702E0,1.010371089E0,-2.455678284E-1
3.542498125E1,-1.375668526E0,7.745771408E-1,-3.310889602E-1
3.544500312E1,-1.551597714E0,1.098335743E0,-2.541199327E-1
3.547000000E1,-1.637118816E0,7.550294399E-1,-2.101376355E-1
3.549499531E1,-1.688431501E0,1.612684280E-1,-2.565633953E-1
3.551999219E1,-1.412320375E0,-9.529497474E-2,-2.993239760E-1
3.554498906E1,-9.724974632E-1,5.925392509E-1,-9.040805697E-2
3.556998594E1,-8.698720932E-1,1.320690632E0,-3.543018550E-2
3.558999688E1,-9.272934198E-1,1.281595230E0,7.330382708E-3
3.561003438E1,-1.083674908E0,1.507615447E0,1.404990107E-1
3.563499531E1,-1.323134065E0,1.617571115E0,1.319468915E-1
3.566002188E1,-1.621236324E0,1.253495455E0,-6.719517708E-2
3.568498750E1,-1.893682241E0,7.562511563E-1,-2.773328125E-1
3.571001719E1,-1.860695481E0,5.607742667E-1,-2.040289938E-1
3.573498125E1,-1.535715222E0,7.709119320E-1,1.307251602E-1
3.575500312E1,-1.422094226E0,8.491026759E-1,-2.443460980E-3
3.578000000E1,-1.473406911E0,5.986479521E-1,-2.186897546E-1
3.580499531E1,-1.199739337E0,-3.665191308E-2,-7.330382708E-3
3.582999375E1,-1.072679400E0,6.352998316E-2,-3.787364438E-2
3.585498906E1,-8.698720932E-1,-2.076941729E-1,-6.597344577E-2
3.587998594E1,-6.585127115E-1,1.246165112E-1,-2.443460980E-3
3.590000313E1,-4.899139106E-1,3.029891551E-1,-5.619960278E-2
3.592500469E1,-2.101376355E-1,9.407324344E-2,-2.076941729E-2
3.595000000E1,7.452555746E-2,-2.809980214E-1,-3.787364438E-2
3.597499688E1,5.302309990E-1,-4.153883457E-1,2.443460934E-2
3.599999375E1,7.623597980E-1,-6.414085031E-1,9.529497474E-2
3.602499062E1,8.014551997E-1,-5.607742667E-1,2.577851415E-1
3.604998750E1,7.220426798E-1,-6.328563690E-1,2.480112910E-1
3.607498281E1,9.798278213E-1,-9.101892114E-1,2.809980214E-1
3.609500469E1,1.171639562E0,-1.114218235E0,3.249803185E-1
3.612000313E1,1.407433510E0,-1.235169530E0,3.433062732E-1
3.614499844E1,1.525941372E0,-1.152091861E0,3.946189284E-1
3.616999531E1,1.755626678E0,-1.034805655E0,4.153883457E-1
3.619499062E1,1.852143407E0,-1.095892191E0,3.689626157E-1
3.621998750E1,1.925447226E0,-1.011592865E0,3.677408695E-1
3.624498438E1,1.883908391E0,-9.871582389E-1,4.202752709E-1
3.626998125E1,1.864360690E0,-7.929030657E-1,3.506366313E-1
3.629002031E1,1.732413769E0,-7.220426798E-1,2.528982162E-1
3.631499844E1,1.775174379E0,-4.532620013E-1,2.480112910E-1
3.633999688E1,1.837482572E0,-4.581489265E-1,3.005456924E-1
3.636499219E1,1.865582466E0,-5.094615817E-1,1.417207420E-1
3.638998906E1,1.824043632E0,-4.031710625E-1,-8.429940045E-2
3.641498438E1,1.734857321E0,-4.300491214E-1,-1.319468915E-1
3.643998281E1,1.622458100E0,-6.035348773E-1,-1.759291887E-1
3.646000469E1,1.497841597E0,-6.927211881E-1,-2.211332172E-1
3.648500000E1,1.132544160E0,-7.941247821E-1,-1.954768747E-1
3.650999688E1,7.709119320E-1,-4.960225821E-1,-2.260201424E-1
3.653499375E1,5.839871764E-1,-2.480112910E-1,-2.431243658E-1
3.655999063E1,4.850269854E-1,-3.371976018E-1,-2.076941729E-1
3.658498594E1,3.029891551E-1,-2.712241709E-1,-1.795943826E-1
3.660998281E1,1.087340117E-1,-2.345722467E-1,-1.966986060E-1
3.663000625E1,7.452555746E-2,-3.054326177E-1,-9.162978828E-2
3.665500156E1,-1.954768747E-1,-1.270599663E-1,-1.343903504E-2
3.667999844E1,-3.970623910E-1,-1.185078546E-1,9.162978828E-2
3.670499375E1,-5.229006410E-1,5.253440887E-2,2.687807009E-2
3.672999062E1,-4.508185387E-1,5.131268129E-2,-4.276056588E-2
3.675498750E1,-4.740314186E-1,1.331686229E-1,-1.392772794E-1
3.677998438E1,-7.183775306E-1,1.490511149E-1,-1.307251602E-1
3.680000625E1,-1.044579506E0,2.822197378E-1,-1.771509200E-1
3.682500781E1,-1.288925648E0,2.467895597E-1,-1.954768747E-1
3.685003281E1,-1.437976718E0,1.795943826E-1,-1.258382350E-1
3.687499531E1,-1.424537778E0,2.956587672E-1,-1.502728462E-1
3.690000625E1,-1.255938888E0,3.885102868E-1,-1.466076523E-1
3.692498750E1,-1.342681766E0,6.267477274E-1,-1.001819000E-1
3.694998594E1,-1.657888293E0,7.024950385E-1,-9.651670605E-2
3.696999219E1,-1.695761919E0,8.527678847E-1,-1.319468915E-1
3.698999844E1,-1.728748560E0,1.178969860E0,-1.771509200E-1
3.701499375E1,-1.766622305E0,1.075122833E0,-3.457497358E-1
3.703999062E1,-1.817934990E0,5.583308339E-1,-5.094615817E-1
3.706498750E1,-1.771509171E0,5.949827433E-1,-4.948008358E-1
3.708998438E1,-1.765400529E0,7.049384713E-1,-5.375614166E-1
3.711002344E1,-1.738522410E0,9.028587937E-1,-5.900958180E-1
3.713500313E1,-1.753183246E0,1.077566266E0,-6.951646209E-1
3.716000000E1,-1.711644411E0,1.290147424E0,-7.635815740E-1
3.718499531E1,-1.491732955E0,1.346346974E0,-8.808676600E-1
3.720999219E1,-1.428202868E0,9.150761366E-1,-1.014036298E0
3.723498750E1,-1.358564258E0,-3.420845419E-2,-9.431759119E-1
3.725998594E1,-1.044579506E0,-3.286454976E-1,-8.075638413E-1
3.728498125E1,-8.246680498E-1,-4.373795092E-1,-6.633996367E-1
3.730500312E1,-5.363397002E-1,-3.445279896E-1,-5.326744914E-1
3.732503125E1,-4.312708676E-1,-3.543018401E-1,-5.693264008E-1
3.734999063E1,5.742133036E-2,-4.459316134E-1,-4.532620013E-1
3.737498750E1,5.558873415E-1,-3.457497358E-1,-1.734857261E-1
3.739998438E1,6.328563690E-1,-1.991420686E-1,-1.307251602E-1
3.742000625E1,6.548475623E-1,-1.050688177E-1,-3.543018550E-2
3.744500312E1,7.806857824E-1,-4.361577928E-1,-2.443460980E-3
3.747000000E1,9.578366876E-1,-5.632177591E-1,7.819075137E-2
3.749499531E1,1.332907915E0,-6.365215778E-1,3.115412593E-1
3.751999219E1,1.390329242E0,-6.841690540E-1,3.995058537E-1
3.754498906E1,1.386664033E0,-8.649851680E-1,3.518583775E-1
3.756998594E1,1.635897160E0,-1.116661668E0,4.337143302E-1
3.759498125E1,1.655444741E0,-1.356120825E0,3.543018401E-1
3.761500312E1,1.601688623E0,-1.445307136E0,1.685988009E-1
3.764000156E1,1.806939363E0,-1.369559884E0,2.932153083E-2
3.766499688E1,2.003638029E0,-1.453859210E0,3.909537569E-2
3.768999375E1,2.138028383E0,-1.094670534E0,-3.054326214E-2
3.771498906E1,2.106263399E0,-9.407324791E-1,-1.698205322E-1
3.773998594E1,1.987755537E0,-6.951646209E-1,-2.932153046E-1
3.776498281E1,1.650557876E0,-6.560692787E-1,-2.883283794E-1
3.778500469E1,1.551597714E0,-5.974261761E-1,-3.188716471E-1
3.781000156E1,1.419650793E0,-7.073819637E-1,-4.434881508E-1
3.783499844E1,1.318247199E0,-6.401867867E-1,-4.569272101E-1
3.785999531E1,1.176526427E0,-7.867944241E-1,-3.995058537E-1
3.788499062E1,1.103222609E0,-8.100072742E-1,-4.153883457E-1
3.790998750E1,9.272934198E-1,-9.480628371E-1,-5.461135507E-1
3.793498438E1,5.998696685E-1,-8.869763017E-1,-6.096435189E-1
3.795500625E1,3.396410644E-1,-7.208209634E-1,-5.607742667E-1
3.798000312E1,2.113593668E-1,-6.304129362E-1,-4.544837475E-1
3.800499844E1,2.076941729E-2,-3.066543341E-1,-2.809980214E-1
3.802999688E1,-1.673770696E-1,-2.296853215E-1,-1.820378453E-1
3.805499219E1,-3.652974069E-1,-2.113593668E-1,-2.089159042E-1
3.807998906E1,-4.373795092E-1,-2.528982162E-1,-1.453859210E-1
3.810498438E1,-4.923573732E-1,-2.785545588E-1,-4.276056588E-2
3.812998125E1,-6.279694438E-1,1.832595654E-2,-5.619960278E-2
3.815000469E1,-7.318165302E-1,2.138028294E-1,-7.941248268E-2
3.817500000E1,-8.442157507E-1,3.213151097E-1,-1.624901593E-1
3.819999688E1,-8.955284357E-1,3.811798990E-1,-1.111774743E-1
3.822499219E1,-1.111774683E0,4.899139106E-1,-4.886921868E-2
3.825000156E1,-1.357342601E0,6.560692787E-1,-9.773843735E-2
3.827498594E1,-1.517389297E0,1.047023058E0,-2.089159042E-1
3.829999688E1,-1.494176388E0,1.144761443E0,-3.115412593E-1
3.832000469E1,-1.644449234E0,1.059240341E0,-4.557054639E-1
3.834500156E1,-1.672549009E0,9.321803451E-1,-5.717698336E-1
3.836999844E1,-1.778839588E0,4.862487316E-1,-7.171558142E-1
3.839000000E1,-1.847256422E0,1.661553383E-1,-8.026769161E-1
3.841001250E1,-1.949881792E0,-7.086037099E-2,-9.224064946E-1
3.843497656E1,-2.258979559E0,-1.038470864E-1,-1.070235848E0
3.845499844E1,-2.575407743E0,1.221730467E-2,-1.214400053E0
3.847999531E1,-2.630385637E0,5.742133036E-2,-1.233947754E0
3.850499063E1,-2.431243658E0,-2.321287990E-2,-1.078788042E0
3.853001406E1,-2.096489429E0,1.319468915E-1,-1.001819015E0
3.855002031E1,-1.885130167E0,-1.038470864E-1,-9.749408960E-1
3.857500625E1,-1.528384805E0,3.408628106E-1,-8.136724830E-1
3.860000312E1,-1.121548533E0,1.150870085E0,-7.024950385E-1
3.862499844E1,-1.048244715E0,1.318247199E0,-5.900958180E-1
3.864999688E1,-6.878342628E-1,1.033583999E0,-5.302309990E-1
3.867499219E1,-3.127630055E-1,1.404990107E-1,-3.127630055E-1
3.870002656E1,-7.819075137E-2,-5.106833577E-1,-2.223549485E-1
3.872498438E1,1.527163088E-1,-6.524040699E-1,-6.108652428E-2
3.874998125E1,4.557054639E-1,-5.522221923E-1,5.986479297E-2
3.877000469E1,6.817256212E-1,-3.420845270E-1,6.108652428E-2
3.879000781E1,8.258898258E-1,-4.031710625E-1,2.199114859E-2
3.881499062E1,1.167974353E0,-5.070181489E-1,1.160643920E-1
3.883998750E1,1.380555391E0,-7.049384713E-1,1.588249654E-1
3.886000313E1,1.582140923E0,-7.892378569E-1,1.099557430E-1
3.888500625E1,1.613905907E0,-7.696902156E-1,-1.099557430E-2
3.891004375E1,1.577254057E0,-9.810495973E-1,-8.552113175E-2
3.893499844E1,1.413542151E0,-1.004262447E0,-1.258382350E-1
3.895999688E1,1.466076612E0,-1.021366715E0,-1.148426607E-1
3.898499219E1,1.681101084E0,-1.065348983E0,-1.319468915E-1
3.900999375E1,1.729970336E0,-1.176526427E0,-1.795943826E-1
3.903498438E1,1.728748560E0,-6.841690540E-1,-3.286454976E-1
3.905998125E1,1.870469332E0,-5.167919993E-1,-3.665191531E-1
3.908000469E1,1.969429493E0,-5.131267905E-1,-4.043927789E-1
3.910500000E1,2.035403013E0,-3.176499307E-1,-3.897320330E-1
3.912999688E1,1.847256422E0,-2.809980214E-1,-3.665191531E-1
3.915499375E1,1.638340592E0,-3.408628106E-1,-2.944370508E-1
3.917999062E1,1.611462474E0,-2.541199327E-1,-3.775147200E-1
3.920498594E1,1.437976718E0,-2.162462920E-1,-3.885102868E-1
3.922998281E1,1.326799273E0,6.475171447E-2,-3.958406746E-1
3.925002031E1,1.092227101E0,2.565633953E-1,-1.368338168E-1
3.927500156E1,6.890559793E-1,-4.178318083E-1,2.199114859E-2
3.930003125E1,6.267477274E-1,2.834414840E-1,-1.221730490E-3
3.932499531E1,4.618141055E-1,-4.129449129E-1,4.642575979E-2
3.934999063E1,1.062905490E-1,1.820378453E-1,1.295034289E-1
3.937498750E1,-1.734857261E-1,-1.588249579E-2,2.993239760E-1
3.939998281E1,-3.066543341E-1,-2.015855312E-1,3.384193480E-1
3.942000625E1,-3.970623910E-1,2.651154995E-1,3.824016452E-1
3.944500156E1,-7.037167549E-1,-1.441641897E-1,1.404990107E-1
3.947000000E1,-1.077566266E0,1.392772794E-1,-1.624901593E-1
3.949499531E1,-1.393994451E0,-3.176499307E-1,4.886921961E-3
3.951999219E1,-1.610240817E0,-3.188716471E-1,7.330382615E-2
3.954001250E1,-1.703092337E0,4.715879560E-1,1.600466967E-1
3.956497969E1,-1.533271790E0,4.434881508E-1,8.552113175E-2
3.958500156E1,-1.517389297E0,8.747590184E-1,1.148426607E-1
3.961003594E1,-1.530828238E0,9.590584040E-1,1.319468915E-1
3.963499531E1,-1.631010175E0,1.780061245E0,2.296853215E-1
3.965999062E1,-2.032959461E0,1.654223084E0,1.343903542E-1
3.968498750E1,-2.535090685E0,1.414763927E0,-9.773843922E-3
3.971002344E1,-2.500882387E0,8.857545853E-1,1.343903504E-2
3.973497969E1,-1.751961470E0,8.894197941E-1,1.417207420E-1
3.975500312E1,-1.776396155E0,1.006705880E0,-1.710422635E-1
3.978000000E1,-1.860695481E0,1.185078502E0,-2.553416789E-1
3.980499531E1,-1.734857321E0,1.083674908E0,-1.576032341E-1
3.982999219E1,-1.613905907E0,9.957103133E-1,-1.197295859E-1
3.985498750E1,-1.324355841E0,2.076941729E-1,-2.443460971E-1
3.987998594E1,-1.209513187E0,-4.031710625E-1,-3.689626157E-1
3.990000469E1,-1.058018565E0,-7.501425147E-1,-4.031710625E-1
3.992500312E1,-6.597344279E-1,-6.304129362E-1,-3.750712574E-1
3.995000000E1,-3.897320330E-1,-6.169738770E-1,-4.031710625E-1
3.997499688E1,2.687807009E-2,-3.188716471E-1,-3.139847219E-1
3.999999531E1,3.689626157E-1,-4.092797041E-1,-2.651154995E-1
4.002498906E1,6.450737119E-1,-4.789183438E-1,-3.335324228E-1
4.004998594E1,9.712757468E-1,-7.892378569E-1,-3.469714522E-1
4.007002344E1,1.215621829E0,-9.566149712E-1,-3.433062732E-1
4.009500469E1,1.481959105E0,-1.031140566E0,-3.078760803E-1
4.012000156E1,1.678657651E0,-1.066570759E0,-3.164281845E-1
4.014002031E1,1.794722080E0,-1.111774683E0,-3.738495111E-1
4.016498906E1,1.930334091E0,-9.663888216E-1,-4.618141055E-1
4.018998594E1,2.002416134E0,-1.070235848E0,-4.178318083E-1
4.021498125E1,2.086715698E0,-1.031140566E0,-5.082398653E-1
4.023500313E1,2.089159012E0,-1.106887817E0,-5.167919993E-1
4.026000156E1,2.079385281E0,-1.093448758E0,-5.265658498E-1
4.028499688E1,1.927890658E0,-1.033583999E0,-5.106833577E-1
4.030999375E1,1.826487064E0,-1.015258074E0,-6.023131013E-1
4.033498906E1,1.689653277E0,-9.590584040E-1,-7.024950385E-1
4.035998594E1,1.490511179E0,-4.862487316E-1,-9.505063295E-1
4.038498281E1,1.290147424E0,-3.152064681E-1,-1.097113967E0
4.040500469E1,1.197295904E0,-3.396410644E-1,-1.059240341E0
4.043000156E1,1.114218235E0,-5.082398653E-1,-9.199630618E-1
4.045499688E1,8.051204085E-1,-6.035348773E-1,-8.417723179E-1
4.047999531E1,4.361577928E-1,-3.090977967E-1,-7.806857824E-1
4.050499063E1,9.285151958E-2,1.331686229E-1,-6.560692787E-1
4.052998750E1,-1.087340117E-1,9.651670605E-2,-5.070181489E-1
4.055498281E1,-3.274237812E-1,8.063421398E-2,-2.968805134E-1
4.057500625E1,-5.106833577E-1,7.819075137E-2,-2.064724565E-1
4.060000312E1,-6.780604124E-1,4.520402849E-2,-1.331686229E-1
4.062499844E1,-8.820893764E-1,4.166100919E-1,-3.543018550E-2
4.065000156E1,-9.663888216E-1,5.033529401E-1,-6.108652335E-3
4.067499219E1,-1.020144939E0,3.103195429E-1,-1.185078546E-1
4.070000938E1,-1.098335743E0,3.310889602E-1,-1.673770696E-1
4.072498438E1,-1.062905550E0,7.330383062E-1,-1.710422635E-1
4.074998438E1,-1.116661668E0,9.651670456E-1,-1.319468915E-1
4.077002500E1,-1.198517561E0,1.138652802E0,-1.111774743E-1
4.079500000E1,-1.486845970E0,1.175304770E0,-1.453859210E-1
4.081999531E1,-1.643227458E0,1.264491081E0,-1.820378453E-1
4.084001250E1,-1.634675384E0,1.446528912E0,-1.429424584E-1
4.086498438E1,-1.960877419E0,1.815491438E0,-9.773843735E-2
4.088500625E1,-2.189341068E0,1.634675384E0,-9.162978828E-2
4.091000312E1,-2.235766649E0,1.336573124E0,7.330382708E-3
4.093001875E1,-2.263866663E0,1.153313518E0,1.905899495E-1
4.095498906E1,-2.306627035E0,8.991936445E-1,5.033529401E-1
4.097998594E1,-2.300518513E0,1.000597239E0,3.995058537E-1
4.100498281E1,-2.257757902E0,7.525859475E-1,9.896016866E-2
4.102500469E1,-2.069611311E0,4.679227769E-1,4.153883457E-2
4.105003125E1,-1.670105577E0,6.597344577E-2,1.233947799E-1
4.107499844E1,-1.236391187E0,-2.015855312E-1,3.714060783E-1
4.110002969E1,-8.894197941E-1,-1.368338168E-1,5.143485069E-1
4.112499062E1,-5.974261761E-1,3.188716471E-1,4.911356568E-1
4.114998750E1,-2.223549485E-1,3.286454976E-1,3.982841372E-1
4.117498281E1,1.820378453E-1,7.696902007E-2,3.689626157E-1
4.119500625E1,4.495968223E-1,-3.677408695E-1,3.115412593E-1
4.122000313E1,7.977899909E-1,-7.941247821E-1,2.541199327E-1
4.124500000E1,1.098335743E0,-7.965682745E-1,2.907718420E-1
4.126999688E1,1.301142931E0,-8.674286604E-1,3.652974069E-1
4.129499219E1,1.411098719E0,-1.036027431E0,3.445279896E-1
4.132000625E1,1.631010175E0,-1.111774683E0,3.213151097E-1
4.134498438E1,1.804495931E0,-1.412320375E0,2.333505154E-1
4.136998125E1,1.935221076E0,-1.522276163E0,1.514945775E-1
4.139000469E1,1.924225450E0,-1.489289403E0,3.787364438E-2
4.141500000E1,2.006081343E0,-1.473406911E0,-4.642575979E-2
4.143999688E1,2.123367548E0,-1.054353356E0,-1.600466967E-1
4.145999844E1,2.053728819E0,-8.087855577E-1,-2.125810981E-1
4.148498438E1,1.982868552E0,-5.571091175E-1,-2.895501256E-1
4.150500625E1,1.962099195E0,-6.133086681E-1,-2.822197378E-1
4.153000312E1,1.890017033E0,-6.304129362E-1,-2.712241709E-1
4.155000312E1,1.787391663E0,-6.365215778E-1,-1.881464869E-1
4.157498906E1,1.576032281E0,-6.682865620E-1,-1.343903504E-2
4.159998906E1,1.415985584E0,-5.021312237E-1,8.185594529E-2
4.162000469E1,1.246165037E0,-4.129449129E-1,1.221730467E-2
4.164500469E1,9.578366876E-1,-5.656611919E-1,-8.674286306E-2
4.167000156E1,8.210029006E-1,-1.031140566E0,-3.787364438E-2
4.169499844E1,6.817256212E-1,-1.060461998E0,-8.063421398E-2
4.171999531E1,3.567453027E-1,-5.119050741E-1,-8.918632567E-2
4.174499062E1,3.543018550E-2,1.685988009E-1,-9.040805697E-2
4.176998750E1,-1.270599663E-1,4.141666293E-1,-6.108652428E-2
4.178998750E1,-2.223549485E-1,4.349360466E-1,-8.185594529E-2
4.181000156E1,-4.141666293E-1,5.033529401E-1,-1.502728462E-1
4.183499688E1,-5.546656251E-1,4.520402849E-1,-2.125810981E-1
4.185999375E1,-6.548475623E-1,6.646213531E-1,-2.553416789E-1
4.188498906E1,-7.745771408E-1,5.595525503E-1,-1.783726513E-1
4.190998906E1,-9.602801800E-1,5.033529401E-1,-1.588249654E-1
4.193498281E1,-1.158200502E0,6.218608022E-1,-2.761110961E-1
4.195500625E1,-1.258382440E0,5.791002512E-1,-3.445279896E-1
4.198000156E1,-1.414763927E0,6.108652353E-1,-3.897320330E-1
4.200001719E1,-1.594358325E0,5.094615817E-1,-4.202752709E-1
4.202498906E1,-1.825265288E0,6.670648456E-1,-4.019493163E-1
4.204998906E1,-1.940107942E0,8.075638413E-1,-2.895501256E-1
4.207498125E1,-1.958433986E0,1.138652802E0,-1.808161139E-1
4.209500469E1,-2.010968447E0,1.609019041E0,-4.764748737E-2
4.212000156E1,-2.098932981E0,1.480737329E0,-2.443460980E-3
4.214499688E1,-2.207666874E0,1.171639562E0,-2.809980139E-2
4.216999375E1,-2.267531872E0,7.794640660E-1,-2.015855312E-1
4.219498906E1,-2.230879784E0,7.709119320E-1,-1.466076523E-1
4.221998750E1,-2.194227934E0,6.756169796E-1,-9.896016866E-2
4.224498281E1,-1.980425119E0,7.586946487E-1,-5.864306167E-2
4.226500625E1,-1.781283021E0,8.368853927E-1,-1.148426607E-1
4.229000156E1,-1.453859210E0,7.232644558E-1,-6.475171447E-2
4.231499844E1,-9.309586287E-1,5.143485069E-1,6.597344577E-2
4.233999531E1,-6.328563690E-1,4.105014503E-1,1.588249654E-1
4.236499063E1,-2.822197378E-1,2.602286041E-1,2.113593668E-1
4.238998750E1,-6.719517708E-2,5.131268129E-2,2.394591719E-1
4.241498438E1,4.056145251E-1,-4.886921868E-2,4.361577928E-1
4.243998125E1,6.340780854E-1,-5.400048494E-1,4.153883457E-1
4.246000312E1,8.429940343E-1,-8.393288255E-1,4.117231667E-1
4.248500000E1,1.185078502E0,-1.097113967E0,4.434881508E-1
4.251002344E1,1.478293896E0,-1.337794900E0,4.471533597E-1
4.253499219E1,1.578475714E0,-1.315803766E0,4.276056588E-1
4.255998906E1,1.728748560E0,-1.262047529E0,4.178318083E-1
4.257999375E1,2.008524895E0,-1.164309144E0,4.984660447E-1
4.260000312E1,2.053728819E0,-1.273043156E0,5.571091175E-1
4.262499844E1,2.051285505E0,-1.059240341E0,4.862487316E-1
4.264999531E1,2.193006277E0,-7.464773059E-1,3.787364364E-1
4.267499062E1,2.439795732E0,-5.082398653E-1,3.701843321E-1
4.270000469E1,2.399478674E0,-6.878342628E-1,3.897320330E-1
4.272498438E1,2.263866663E0,-7.733553648E-1,3.469714522E-1
4.274998125E1,2.101376295E0,-6.817256212E-1,3.127630055E-1
4.277000312E1,1.997529268E0,-5.827654600E-1,2.321287841E-1
4.279500000E1,1.699427128E0,-4.642575681E-1,1.014036313E-1
4.281999688E1,1.492954612E0,-5.827654600E-1,5.497787148E-2
4.284499219E1,1.252273679E0,-6.267477274E-1,-6.719517708E-2
4.287002188E1,1.075122833E0,-6.560692787E-1,-1.514945775E-1
4.289498594E1,8.161159754E-1,-5.216789246E-1,-2.565633953E-1
4.291998281E1,4.214970171E-1,-3.689626157E-1,-2.773328125E-1
4.294001094E1,1.453859210E-1,-2.467895597E-1,-2.981022298E-1
4.296500000E1,-1.172861233E-1,-6.719517708E-2,-2.663372457E-1
4.298999688E1,-2.895501256E-1,2.443460980E-3,-1.380555481E-1
4.301499375E1,-3.494149148E-1,2.724458873E-1,-1.026253626E-1
4.303999062E1,-4.398229718E-1,3.982841372E-1,-1.014036313E-1
4.306498594E1,-4.984660447E-1,4.251621962E-1,-2.932153083E-2
4.308998281E1,-6.169738770E-1,3.677408695E-1,9.773843922E-3
4.311003438E1,-6.768386960E-1,4.068362415E-1,3.054326214E-2
4.313500156E1,-6.524040699E-1,6.267477274E-1,4.398229718E-2
4.315999844E1,-7.904596329E-1,6.792821288E-1,1.307251602E-1
4.318499531E1,-9.908233881E-1,8.405505419E-1,2.834414840E-1
4.320999688E1,-1.284038782E0,9.468411207E-1,3.310889602E-1
4.323498750E1,-1.422094226E0,9.786061049E-1,2.162462920E-1
4.325998438E1,-1.666440368E0,8.796459436E-1,9.773843735E-2
4.328000625E1,-1.979203343E0,8.283332586E-1,9.773843922E-3
4.330500313E1,-2.337170362E0,8.881980777E-1,-6.719517708E-2
4.332999844E1,-2.356718063E0,7.819074988E-1,-1.466076523E-1
4.335000938E1,-2.370157003E0,8.332201838E-1,-2.528982162E-1
4.337498594E1,-2.326174736E0,9.700539708E-1,-3.359758854E-1
4.339998281E1,-2.221106052E0,8.185594082E-1,-3.420845270E-1
4.342000625E1,-2.069611311E0,7.098253965E-1,-4.214970171E-1
4.344500156E1,-1.951103568E0,6.585127115E-1,-4.764748812E-1
4.346999844E1,-1.831373930E0,6.304129362E-1,-4.715879560E-1
4.349499531E1,-1.448972344E0,6.157521605E-1,-4.043927789E-1
4.352002031E1,-1.148426652E0,3.775147200E-1,-3.775147200E-1
4.354498750E1,-7.599163651E-1,2.626720369E-1,-3.652974069E-1
4.356998438E1,-5.351179242E-1,1.539380401E-1,-3.078760803E-1
4.359498125E1,-3.176499307E-1,2.687807009E-2,-2.638937831E-1
4.361500312E1,-1.747074574E-1,-3.469714522E-1,-2.492330223E-1
4.364000000E1,1.783726513E-1,-5.510004163E-1,-3.054326214E-2
4.366499531E1,4.483750761E-1,-6.352998614E-1,1.050688177E-1
4.368999219E1,8.222246170E-1,-7.281513810E-1,8.552113175E-2
4.371498906E1,1.225395679E0,-9.089674950E-1,1.380555481E-1
4.373998594E1,1.232726097E0,-1.053131700E0,1.014036313E-1
4.376498125E1,1.728748560E0,-1.006705880E0,1.331686229E-1
4.378500469E1,1.860695481E0,-1.160643935E0,1.966986060E-1
4.381000000E1,2.013411760E0,-9.358455539E-1,2.565634064E-2
4.383499688E1,2.106263399E0,-8.393288255E-1,-4.886921868E-2
4.385999375E1,2.140471697E0,-7.000515461E-1,-9.773843735E-2
4.388498906E1,2.067167997E0,-7.232644558E-1,-2.076941729E-2
4.391000625E1,2.007303238E0,-7.782422900E-1,7.086037099E-2
4.393498281E1,1.963320851E0,-8.466592431E-1,1.233947799E-1
4.395500469E1,1.997529268E0,-6.743952036E-1,1.539380401E-1
4.398000156E1,1.921782017E0,-7.305948138E-1,1.734857261E-1
4.400499844E1,1.709200978E0,-8.784242272E-1,1.478293836E-1
4.402999531E1,1.633453608E0,-9.883799553E-1,1.136209369E-1
4.405499062E1,1.446528912E0,-1.017701507E0,3.054326214E-2
4.407998750E1,1.251052022E0,-7.965682745E-1,-1.893682182E-1
4.410498281E1,1.071457624E0,-3.787364364E-1,-3.933972120E-1
4.412500625E1,9.529497623E-1,-2.223549485E-1,-3.909537494E-1
4.415000313E1,7.134906054E-1,-1.392772794E-1,-2.577851415E-1
4.417499844E1,2.809980214E-1,2.272418737E-1,-5.864306167E-2
4.419999531E1,-1.123992056E-1,1.991420686E-1,-5.986479297E-2
4.422499219E1,-2.443460971E-1,2.822197378E-1,-1.050688177E-1
4.425000000E1,-2.687807083E-1,2.724458873E-1,-1.685988009E-1
4.427498438E1,-3.848451078E-1,1.038470864E-1,-1.417207420E-1
4.429998281E1,-6.279694438E-1,6.841690838E-2,-3.665191308E-2
4.432000469E1,-8.979718685E-1,1.576032341E-1,1.368338168E-1
4.434500000E1,-1.018923163E0,2.822197378E-1,1.026253626E-1
4.436999688E1,-9.773843884E-1,5.571091175E-1,-6.108652335E-3
4.439499219E1,-1.127657175E0,8.197811246E-1,-3.054326214E-2
4.441999063E1,-1.309695125E0,7.782422900E-1,-1.356120855E-1
4.444498594E1,-1.505171895E0,1.004262447E0,-3.115412593E-1
4.446998281E1,-1.611462474E0,8.332201838E-1,-3.909537494E-1
4.449000469E1,-1.731192112E0,9.566149712E-1,-4.080579877E-1
4.451002969E1,-1.852143407E0,9.370672703E-1,-4.434881508E-1
4.453499219E1,-2.032959461E0,7.892378569E-1,-5.375614166E-1
4.455998906E1,-2.141693592E0,8.955284357E-1,-5.473352671E-1
4.457999531E1,-2.138028383E0,8.503243923E-1,-5.754350424E-1
4.460000156E1,-2.140471697E0,7.733553648E-1,-5.962044597E-1
4.462499844E1,-2.097711325E0,7.855727077E-1,-5.803219676E-1
4.464999531E1,-1.982868552E0,7.843509912E-1,-5.668829679E-1
4.467499062E1,-1.940107942E0,6.316346526E-1,-6.145304441E-1
4.469998750E1,-1.816713214E0,4.508185387E-1,-5.888741016E-1
4.472498438E1,-1.594358325E0,5.485569835E-1,-4.642575681E-1
4.474500625E1,-1.222952247E0,2.443460934E-2,-4.483750761E-1
4.477000312E1,-9.114109278E-1,-7.819075137E-2,-4.447098970E-1
4.479499844E1,-5.595525503E-1,1.954768784E-2,-3.982841372E-1
4.481999531E1,-3.970623910E-1,1.759291887E-1,-1.649336070E-1
4.484499219E1,-1.233947799E-1,1.148426607E-1,7.819075137E-2
4.486998906E1,3.665191308E-2,1.466076542E-2,2.345722467E-1
4.489498438E1,2.590068579E-1,-2.626720369E-1,2.761110961E-1
4.491998281E1,6.340780854E-1,-3.384193480E-1,3.127630055E-1
4.494000469E1,1.001819015E0,-7.147123218E-1,2.993239760E-1
4.496500000E1,1.527163148E0,-1.084896684E0,3.787364364E-1
4.498999688E1,1.874134541E0,-1.282817006E0,4.801400900E-1
4.501499375E1,1.695761919E0,-1.396437883E0,3.286454976E-1
4.503999062E1,1.849699974E0,-1.055575132E0,4.031710625E-1
4.506498594E1,2.343279123E0,-1.178969860E0,6.230825186E-1
4.508998281E1,1.971872926E0,-1.165530920E0,5.937610269E-1
4.511000625E1,1.775174379E0,-6.707300544E-1,2.590068579E-1
4.513500156E1,1.965764284E0,-4.214970171E-1,-5.986479297E-2
4.515999844E1,2.199114799E0,-2.724458873E-1,5.742133036E-2
4.518499375E1,2.167349815E0,-4.679227769E-1,2.272418737E-1
4.521001563E1,2.024407387E0,-8.356636167E-1,1.490511149E-1
4.523498594E1,1.924225450E0,-8.478809595E-1,1.466076542E-2
4.525998438E1,1.837482572E0,-4.838052690E-1,-3.665191308E-2
4.528000625E1,1.587027907E0,-4.043927789E-1,-2.932153083E-2
4.530500313E1,9.101892114E-1,-6.072000265E-1,-1.368338168E-1
4.532503281E1,8.698720932E-1,-6.120869517E-1,-1.710422635E-1
4.535000469E1,6.951646209E-1,-6.243042946E-1,-3.555235565E-1
4.537498594E1,5.448917747E-1,-4.776966274E-1,-3.469714522E-1
4.540002813E1,4.019493163E-1,-3.738495111E-1,-2.309070528E-1
4.542497969E1,2.260201424E-1,-2.602286041E-1,-1.172861233E-1
4.544500156E1,4.276056588E-2,9.529497474E-2,7.330382708E-3
4.546999844E1,-5.742133036E-2,4.105014503E-1,8.429940045E-2
4.549499531E1,-1.685988009E-1,6.047565937E-1,7.941248268E-2
4.551999063E1,-3.958406746E-1,5.619960427E-1,8.552113175E-2
4.554498750E1,-6.585127115E-1,5.632177591E-1,-4.764748737E-2
4.556998438E1,-7.916813493E-1,4.605923891E-1,-1.857030392E-1
4.559000625E1,-9.150761366E-1,2.773328125E-1,-2.028072625E-1
4.561001406E1,-1.088561893E0,2.223549485E-1,-1.893682182E-1
4.563499375E1,-1.281595230E0,4.532620013E-1,-2.956587672E-1
4.565999063E1,-1.336573124E0,4.911356568E-1,-2.431243658E-1
4.568498594E1,-1.489289403E0,6.133086681E-1,-1.319468915E-1
4.570998281E1,-1.646892667E0,7.770205736E-1,-1.490511149E-1
4.573000469E1,-1.609019041E0,7.538077235E-1,-2.260201424E-1
4.575001719E1,-1.657888293E0,9.065240026E-1,-2.492330223E-1
4.577499219E1,-1.909564734E0,1.143539667E0,-1.539380401E-1
4.580000781E1,-2.103819847E0,1.209513187E0,-1.026253626E-1
4.582502500E1,-2.172236681E0,1.352455616E0,-3.176499158E-2
4.584998281E1,-2.114815474E0,1.210734844E0,-7.330382615E-2
4.587000469E1,-2.097711325E0,9.016370773E-1,-1.588249654E-1
4.589500000E1,-2.020742178E0,5.485569835E-1,-2.712241709E-1
4.591999688E1,-1.918116808E0,4.300491214E-1,-2.467895597E-1
4.594499375E1,-1.678657651E0,3.115412593E-1,-2.296853215E-1
4.596999062E1,-1.511280537E0,3.506366313E-1,-1.429424584E-1
4.599498594E1,-1.218065262E0,4.789183438E-1,-7.941248268E-2
4.601998281E1,-8.491026759E-1,6.988298297E-1,-5.742133036E-2
4.604000625E1,-6.414085031E-1,6.462954283E-1,-9.162978828E-2
4.606500156E1,-2.932153046E-1,1.563815027E-1,-1.123992056E-1
4.609000000E1,-3.054326214E-2,-2.272418737E-1,-1.099557430E-2
4.611001875E1,2.785545588E-1,-4.996877611E-1,1.038470864E-1
4.613498438E1,6.352998614E-1,-7.843509912E-1,9.896016866E-2
4.615998750E1,8.698720932E-1,-9.566149712E-1,1.136209369E-1
4.618000469E1,1.051909924E0,-1.080009699E0,1.356120855E-1
4.620500000E1,1.403768301E0,-1.043357849E0,1.453859210E-1
4.622999844E1,1.557706356E0,-1.027475357E0,1.685988009E-1
4.625499375E1,1.671327233E0,-1.067792416E0,1.905899495E-1
4.627999062E1,1.747074604E0,-9.590584040E-1,2.333505154E-1
4.630000469E1,1.649336100E0,-1.060461998E0,3.200933933E-1
4.632000469E1,1.714087844E0,-8.319984674E-1,2.968805134E-1
4.634500000E1,1.990198970E0,-6.438519359E-1,8.063421398E-2
4.637001406E1,2.070833206E0,-5.998696685E-1,1.490511149E-1
4.639499219E1,2.042733431E0,-8.552113175E-1,2.357939780E-1
4.641998906E1,2.095267773E0,-9.773843884E-1,2.675589621E-1
4.644000313E1,1.997529268E0,-9.651670456E-1,1.881464869E-1
4.646000312E1,1.871691108E0,-9.395107627E-1,4.398229718E-2
4.648499844E1,1.880243182E0,-5.693264008E-1,-1.661553383E-1
4.650999531E1,1.742187619E0,-5.962044597E-1,-3.029891551E-1
4.653499219E1,1.488067746E0,-4.129449129E-1,-2.993239760E-1
4.655998906E1,1.263269305E0,-4.495968223E-1,-5.619960278E-2
4.658498438E1,9.920451641E-1,-3.885102868E-1,-2.443460980E-3
4.661000313E1,7.513642311E-1,-2.101376355E-1,-8.307766914E-2
4.663000469E1,6.157521605E-1,-8.307766914E-2,-1.331686229E-1
4.665500000E1,3.591887653E-1,-1.331686229E-1,-1.331686229E-1
4.667999688E1,2.272418737E-1,-5.009094998E-2,-9.651670605E-2
4.670499219E1,5.375614017E-2,2.138028294E-1,-2.076941729E-2
4.672998906E1,-2.724458873E-1,2.614503205E-1,1.221730490E-3
4.674999062E1,-4.068362415E-1,3.469714522E-1,1.221730490E-3
4.677000312E1,-4.398229718E-1,4.728097022E-1,4.520402849E-2
4.679000938E1,-4.960225821E-1,6.133086681E-1,4.276056588E-2
4.681499062E1,-6.756169796E-1,6.756169796E-1,-2.809980139E-2
4.683998750E1,-8.417723179E-1,6.743952036E-1,-1.221730467E-2
4.686000625E1,-1.017701507E0,6.719517708E-1,8.429940045E-2
4.688500469E1,-1.328021049E0,7.342600226E-1,1.576032341E-1
4.691000156E1,-1.332907915E0,7.721336484E-1,1.343903504E-2
4.693499844E1,-1.502728462E0,4.618141055E-1,-1.429424584E-1
4.695999531E1,-1.632231951E0,6.145304441E-1,-1.307251602E-1
4.698499062E1,-1.756848454E0,7.220426798E-1,-5.619960278E-2
4.700998750E1,-1.739744186E0,8.295549750E-1,-1.160643920E-1
4.703498281E1,-1.673770785E0,1.062905550E0,-2.272418737E-1
4.705500625E1,-1.693318486E0,1.064127207E0,-2.773328125E-1
4.708000313E1,-1.857030272E0,1.014036298E0,-3.115412593E-1
4.710499844E1,-1.981646776E0,1.153313518E0,-3.029891551E-1
4.712999531E1,-2.085493803E0,1.287703872E0,-3.286454976E-1
4.715499219E1,-2.240653753E0,1.169196010E0,-4.141666293E-1
4.717998906E1,-2.272418737E0,9.089674950E-1,-4.715879560E-1
4.720498438E1,-1.908342957E0,5.021312237E-1,-4.520402849E-1
4.722998281E1,-1.562593222E0,1.771509200E-1,-4.459316134E-1
4.725000469E1,-1.326799273E0,6.108652335E-3,-3.701843321E-1
4.727500000E1,-9.847147465E-1,-1.893682182E-1,-2.809980214E-1
4.729999688E1,-7.049384713E-1,-2.150245607E-1,-1.771509200E-1
4.732501719E1,-1.930334121E-1,-3.115412593E-1,-2.357939780E-1
4.734998906E1,1.307251602E-1,-3.298672140E-1,-2.284636050E-1
4.737498594E1,3.799581826E-1,-4.117231667E-1,-1.380555481E-1
4.739998125E1,5.803219676E-1,-4.178318083E-1,-3.298672289E-2
4.742000469E1,7.147123218E-1,-5.888741016E-1,9.773843922E-3
4.744500156E1,1.093448758E0,-7.721336484E-1,1.905899495E-1
4.746999844E1,1.365894675E0,-9.419541955E-1,2.260201424E-1
4.749499375E1,1.639562249E0,-8.466592431E-1,3.103195429E-1
4.751999063E1,1.806939363E0,-8.210029006E-1,2.981022298E-1
4.754002969E1,2.036624670E0,-8.833111525E-1,3.029891551E-1
4.756497812E1,2.051285505E0,-8.332201838E-1,2.663372457E-1
4.758500000E1,2.034181118E0,-8.698720932E-1,2.834414840E-1
4.760999844E1,2.010968447E0,-9.651670456E-1,2.614503205E-1
4.763499375E1,2.010968447E0,-8.662068844E-1,1.881464869E-1
4.765998906E1,2.092824221E0,-8.527678847E-1,3.665191354E-3
4.768498594E1,2.130697966E0,-7.220426798E-1,-1.710422635E-1
4.771002812E1,2.095267773E0,-4.227187335E-1,-2.186897546E-1
4.773497969E1,1.929112434E0,-3.555235565E-1,-1.820378453E-1
4.775500156E1,1.828930497E0,-4.483750761E-1,-1.490511149E-1
4.777999844E1,1.613905907E0,-4.654793143E-1,-2.309070528E-1
4.780499531E1,1.266934514E0,-3.970623910E-1,-5.571091175E-1
4.783000469E1,1.198517561E0,-4.202752709E-1,-5.766567588E-1
4.785001250E1,1.032362223E0,-4.679227769E-1,-5.204572082E-1
4.787497813E1,7.819074988E-1,-4.996877611E-1,-4.117231667E-1
4.789500000E1,6.365215778E-1,-4.153883457E-1,-3.506366313E-1
4.791999688E1,4.948008358E-1,-4.153883457E-2,-2.076941729E-1
4.794499375E1,3.237585723E-1,5.900958180E-1,-7.941248268E-2
4.796999062E1,9.040805697E-2,7.257078886E-1,2.076941729E-2
4.799498594E1,-3.274237812E-1,7.745771408E-1,8.796459436E-2
4.801998281E1,-5.290092826E-1,6.352998614E-1,1.844813079E-1
4.804000469E1,-6.194173694E-1,3.897320330E-1,2.370157093E-1
4.806500156E1,-6.487388611E-1,3.555235565E-1,1.014036313E-1
4.808999844E1,-7.305948138E-1,2.138028294E-1,-1.710422710E-2
4.811499375E1,-9.395107627E-1,4.202752709E-1,-7.452555746E-2
4.813999062E1,-1.265712738E0,4.043927789E-1,1.062905490E-1
