"Time (s)","Linear Acceleration x (m/s^2)","Linear Acceleration y (m/s^2)","Linear Acceleration z (m/s^2)"
3.497656200E-2,-2.247499943E0,-9.784999490E-1,4.016299725E0
5.499843700E-2,-1.743600011E0,-1.427000016E-1,4.393599987E0
8.500000000E-2,1.026899934E0,-2.168999910E-1,3.893999815E0
1.150015620E-1,2.238899946E0,-1.609300017E0,5.346699715E0
1.450046870E-1,2.445499897E0,-3.007499933E0,6.353999615E0
1.750062500E-1,1.873099923E0,-3.253899813E0,5.694099903E0
2.049765620E-1,1.847399950E0,-3.744999886E0,6.967099667E0
2.249984370E-1,1.085799932E0,-4.413599968E0,6.269299984E0
2.550000000E-1,1.334900022E0,-4.031700134E0,6.082999706E0
2.850031250E-1,2.753199816E0,-3.453599930E0,4.852299690E0
3.150046870E-1,3.307600021E0,-1.009400010E0,2.866400003E0
3.449765620E-1,2.671000004E0,-1.546999961E-1,4.043099880E0
3.649984370E-1,6.326000094E-1,-2.303099871E0,3.952699900E0
3.950000000E-1,8.937000036E-1,-1.919099927E0,1.754599929E0
4.250015620E-1,7.530999780E-1,-8.420000076E-1,1.691999912E0
4.550031250E-1,9.307000041E-1,1.067399979E0,2.384699821E0
4.850062500E-1,1.892099977E0,-1.136799932E0,4.672999978E-1
5.149765620E-1,1.021600008E0,1.239999942E-2,2.081300020E0
5.350000000E-1,-4.987999797E-1,1.135399938E0,1.945599914E0
5.650015620E-1,6.541999578E-1,7.558000088E-1,9.693999887E-1
5.950031250E-1,-1.454999894E-1,8.628000021E-1,3.340999782E-1
6.250046870E-1,-4.766999781E-1,1.383000016E0,1.068599939E0
6.549765620E-1,1.645999908E0,1.607999921E0,-2.026000023E-1
6.749984370E-1,2.769799948E0,1.665199995E0,-3.662999868E-1
7.050000000E-1,2.311199903E0,-3.825999796E-1,-5.173000097E-1
7.350015620E-1,1.799899936E0,-4.550999999E-1,-5.279999971E-1
7.650046870E-1,4.774899960E0,5.518999696E-1,-1.667999923E-1
7.950062500E-1,3.511399984E0,-6.351000071E-1,2.981400013E0
8.250218750E-1,8.027999997E-1,-6.581000090E-1,4.421799660E0
8.549781250E-1,-9.896000028E-1,2.733799934E0,2.189300060E0
8.750015620E-1,-2.837899923E0,3.956399918E0,1.733500004E0
9.050031250E-1,-2.633199930E0,4.257699966E0,-6.198999882E-1
9.350046870E-1,-3.680499792E0,3.835599899E0,-2.107999921E-1
9.649765620E-1,-7.315999866E-1,3.348399878E0,8.479999751E-2
9.849984370E-1,2.338299990E0,3.163199902E0,-7.702999711E-1
1.015000000E0,5.980400085E0,1.924699903E0,-1.026299953E0
1.045001562E0,1.031399965E0,-7.509999871E-1,1.789299965E0
1.075004687E0,-2.850299835E0,2.580499887E0,3.946999788E0
1.104975000E0,-2.897699833E0,5.911599636E0,-2.511000037E-1
1.124996875E0,-3.892299891E0,5.725499630E0,-3.676999807E-1
1.155000000E0,4.379999936E-1,5.548899651E0,2.680000067E-1
1.185001562E0,2.886899948E0,3.954099894E0,-1.554899931E0
1.215003125E0,3.110499859E0,2.836000025E-1,1.934999973E-1
1.245006250E0,5.054999590E-1,-9.011999965E-1,-8.589999676E-1
1.274976562E0,1.793999970E-1,2.829299927E0,-3.784999847E-1
1.294998437E0,6.855999827E-1,4.175300121E0,3.281999826E-1
1.325001562E0,4.797999859E-1,3.015199900E0,8.841999769E-1
1.355003125E0,1.270200014E0,3.152799845E0,1.364499927E0
1.385004687E0,2.976399899E0,1.487599969E0,4.170999825E-1
1.414975000E0,1.374499917E0,1.794299960E0,4.839999974E-1
1.434996875E0,-2.768000066E-1,3.697899818E0,-1.096199989E0
1.465000000E0,-5.934999585E-1,4.245299816E0,-5.837000012E-1
1.495001562E0,3.917999864E-1,3.481299877E0,-1.475799918E0
1.525003125E0,5.986999869E-1,3.493499994E0,-1.049899936E0
1.555004687E0,-8.344999552E-1,2.396100044E0,-2.282399893E0
1.584975000E0,-1.340099931E0,2.993799925E0,-1.096799970E0
1.604998437E0,-1.711499929E0,3.537199974E0,-1.104699969E0
1.635000000E0,-7.238000035E-1,2.414399862E0,1.068099976E0
1.665003125E0,-7.846999764E-1,3.397199869E0,-2.201999873E-1
1.695004687E0,-8.628000021E-1,4.304299831E0,-6.452999711E-1
1.724975000E0,-6.710999608E-1,3.071199894E0,-2.171999961E-1
1.744996875E0,3.709999844E-2,2.223299980E0,2.583000064E-1
1.775000000E0,-1.572399974E0,1.897599936E0,-9.659000039E-1
1.805001562E0,-2.883499861E0,2.075299978E0,-1.210399985E0
1.835003125E0,-3.998000026E-1,1.594499946E0,-1.330299973E0
1.865004687E0,4.506999850E-1,1.804299951E0,-4.368000031E-1
1.894976562E0,1.399999950E-2,2.157500029E0,-1.561199903E0
1.914998437E0,1.158999950E-1,3.108000040E0,-6.935999990E-1
1.945000000E0,7.039999962E-1,3.030499935E0,-1.239599943E0
1.975003125E0,6.529999524E-2,2.236999989E0,6.092000008E-1
2.005004687E0,-1.256099939E0,3.744299889E0,-1.580799937E0
2.034975000E0,-3.670599937E0,3.805399895E0,-1.260999918E0
2.054996875E0,-2.651199818E0,3.341899872E0,-6.000999808E-1
2.085000000E0,-1.493799925E0,2.574399948E0,-8.394999504E-1
2.115001562E0,-1.567999959E0,1.544699907E0,-1.195299983E0
2.145003125E0,-1.421700001E0,2.447099924E0,-6.506999731E-1
2.175006250E0,-2.256599903E0,3.420599937E0,-8.442999721E-1
2.204976562E0,-2.032299995E0,2.022899866E0,-1.685599923E0
2.224998437E0,-2.882999897E0,1.411399961E0,-1.940799952E0
2.255000000E0,-2.974499941E0,2.865999937E0,-1.506999969E0
2.285003125E0,-3.473699808E0,4.943799973E0,-3.036999941E0
2.315004687E0,-5.543000102E-1,4.431699753E0,-3.112999797E-1
2.344975000E0,-1.886999905E-1,4.584799767E0,-9.109999537E-1
2.364996875E0,-6.099999882E-3,3.560199976E0,-2.970700026E0
2.395000000E0,-1.272899985E0,6.547999978E-1,-2.905900002E0
2.425001562E0,-2.369400024E0,-3.274999857E-1,-1.201399922E0
2.455003125E0,-3.110399961E0,1.156700015E0,-3.349999785E-1
2.485006250E0,-3.698199987E0,4.122999668E0,-3.100999892E-1
2.514975000E0,-3.214099884E0,3.563499928E0,-7.226999998E-1
2.534998437E0,-2.918599844E0,2.205399990E0,-5.351999998E-1
2.565001562E0,-1.813799977E0,1.776199937E0,-1.588999987E0
2.595003125E0,-1.741899967E0,2.050199986E0,-2.279199839E0
2.625004687E0,-2.131399870E0,1.993499994E0,-9.648999572E-1
2.654975000E0,-1.555999994E0,3.118599892E0,8.605999947E-1
2.674998437E0,-1.305899978E0,3.915599823E0,5.722999573E-1
2.705000000E0,-1.809599996E0,2.982499838E0,-2.140999883E-1
2.735001562E0,-2.425600052E0,1.965699911E0,-1.155300021E0
2.765004687E0,-1.570199966E0,1.592899919E0,-1.669099927E0
2.795006250E0,-1.524500012E0,9.621999860E-1,-5.350999832E-1
2.824992187E0,-2.037199974E0,9.724999666E-1,-1.748999953E-1
2.844998437E0,-2.112699986E0,1.911499977E0,-4.438999891E-1
2.875001562E0,-1.697600007E0,2.979899883E0,-8.812999725E-1
2.905003125E0,-1.396600008E0,3.102399826E0,-8.499999642E-1
2.935004687E0,-1.623699903E0,9.422999620E-1,-7.100000046E-3
2.964975000E0,-2.443799973E0,-7.586999536E-1,2.838000059E-1
2.984998437E0,-3.175999880E0,-9.059999585E-1,1.782999933E-1
3.015000000E0,-2.371700048E0,-5.934999585E-1,-2.597999871E-1
3.045001562E0,-1.747799993E0,1.590600014E0,4.047999978E-1
3.075004687E0,-1.799699903E0,2.716699839E0,2.940999866E-1
3.105006250E0,-1.909500003E0,2.918900013E0,1.070999950E-1
3.134976562E0,-7.619999647E-1,1.902899981E0,1.094200015E0
3.154998437E0,-6.719999909E-1,1.571699977E0,-1.429999992E-2
3.185001562E0,-2.294800043E0,1.083999991E0,-9.328999519E-1
3.215003125E0,-2.970899820E0,1.472999930E0,-5.399000049E-1
3.245004687E0,-3.680999994E0,1.411799908E0,7.062999606E-1
3.274976562E0,-2.462199926E0,1.429999948E0,7.734000087E-1
3.294998437E0,-1.402999997E0,1.932799935E0,2.919999883E-2
3.325000000E0,-4.499000013E-1,1.371099949E0,-9.274999499E-1
3.355001562E0,-1.190299988E0,1.258999944E0,-1.521499991E0
3.385004687E0,-1.784500003E0,2.550699949E0,-6.457999945E-1
3.415006250E0,-2.331799984E0,2.670899868E0,4.688999951E-1
3.444976562E0,-2.277400017E0,1.650499940E0,-3.316999972E-1
3.465000000E0,-2.085299969E0,1.101199985E0,1.322499990E0
3.495001562E0,-2.151900053E0,1.943599939E0,-3.935999870E-1
3.525003125E0,-1.637399912E0,2.088799953E0,-9.437999725E-1
3.555004687E0,-2.895399809E0,1.904599905E0,-5.119999647E-1
3.584976562E0,-2.986500025E0,2.816099882E0,-9.179999828E-1
3.604998437E0,-3.178099871E0,1.589499950E0,3.398999870E-1
3.635000000E0,-3.095700026E0,9.589999914E-1,3.280000016E-2
3.665001562E0,-3.126999855E0,1.227299929E0,1.459199905E0
3.695003125E0,-2.441599846E0,2.340199947E0,-7.925999761E-1
3.725006250E0,-3.059599876E0,1.573199987E0,-1.425099969E0
3.754976562E0,-2.628299952E0,1.152999997E0,-8.180999756E-1
3.775000000E0,-2.934899807E0,1.118499994E0,9.829999506E-2
3.805001562E0,-2.665299892E0,1.664600015E0,1.309999973E-1
3.835003125E0,-2.381599903E0,1.013399959E0,3.571999967E-1
3.865004687E0,-4.141399860E0,2.168699980E0,-1.596699953E0
3.894976562E0,-3.061899900E0,9.605000019E-1,-1.196299911E0
3.914998437E0,-2.568899870E0,4.657000005E-1,-1.130699992E0
3.945000000E0,-2.209100008E0,2.034800053E0,1.920999885E-1
3.975003125E0,-1.303599954E0,1.340199947E0,-8.191999793E-1
4.005004687E0,-2.255499840E0,-1.081599951E0,1.078699946E0
4.034975000E0,-2.327800035E0,-1.067899942E0,1.520999968E-1
4.054996875E0,-3.183899879E0,1.157599926E0,4.711000025E-1
4.085000000E0,-2.449499846E0,2.926499844E0,-1.343099952E0
4.115001562E0,-2.170599937E0,1.840899944E0,-1.291199923E0
4.145003125E0,-1.678200006E0,1.178699970E0,-9.070999622E-1
4.175006250E0,-1.353600025E0,5.497999787E-1,-7.220000029E-2
4.204975000E0,-1.946299911E0,3.916999996E-1,1.221300006E0
4.224998437E0,-2.123199940E0,1.365700006E0,3.520999849E-1
4.255000000E0,-1.796499968E0,3.152099848E0,-4.111999869E-1
4.285003125E0,-2.345099926E0,4.347899914E0,-1.861599922E0
4.315004687E0,-2.420599937E0,1.676599979E0,-9.278999567E-1
4.344975000E0,-3.101300001E0,7.360000163E-2,5.599999800E-2
4.364996875E0,-3.312500000E0,1.641999930E-1,-1.112399936E0
4.395000000E0,-3.564800024E0,2.784399986E0,-1.337799907E0
4.425001562E0,-3.099900007E0,3.438299894E0,-1.046999991E-1
4.455003125E0,-1.106899977E0,2.174299955E0,3.043999970E-1
4.485004687E0,-1.553900003E0,2.289299965E0,-2.474999875E-1
4.514976562E0,-1.923799992E0,3.142599821E0,4.800000042E-2
4.534998437E0,-1.915299892E0,3.356199980E0,-1.640000008E-2
4.565000000E0,-1.535699964E0,2.977399826E0,1.341999918E-1
4.595003125E0,-2.158200026E0,2.244299889E0,-9.849999845E-2
4.625004687E0,-2.668699980E0,1.277099967E0,-2.450999916E-1
4.654975000E0,-3.496799946E0,6.859999895E-1,-1.011799932E0
4.674996875E0,-2.974099874E0,8.458999991E-1,-1.508999944E0
4.705000000E0,-2.231899977E0,1.497599959E0,-6.647999883E-1
4.735001562E0,-2.911700010E0,2.297799826E0,-7.335000038E-1
4.765003125E0,-2.527899981E0,2.432299852E0,-2.965999842E-1
4.795006250E0,-2.054299831E0,2.026399851E0,3.946000040E-1
4.824978125E0,-3.523599863E0,2.506500006E0,-6.823999882E-1
4.844998437E0,-3.533499956E0,2.597800016E0,-4.298999906E-1
4.875000000E0,-3.148000002E0,2.626199961E0,1.043699980E0
4.905003125E0,-2.208199978E0,2.915999889E0,1.203799963E0
4.935004687E0,-2.055399895E0,3.475600004E0,-7.865999937E-1
4.964976562E0,-2.255899906E0,2.861099958E0,-2.073400021E0
4.984996875E0,-1.233099937E0,1.867100000E0,-1.141799927E0
5.015000000E0,-2.047800064E0,1.503999978E-1,4.779999852E-1
5.045001562E0,-2.221499920E0,3.102000058E-1,-1.034399986E0
5.075003125E0,-2.382799864E0,1.589900017E0,-1.305599928E0
5.105006250E0,-2.524600029E0,2.813799858E0,5.286999941E-1
5.134976562E0,-2.401299953E0,3.295099974E0,8.348999619E-1
5.154998437E0,-2.849400043E0,2.473299980E0,7.222999930E-1
5.185001562E0,-1.799999952E0,1.641699910E0,1.449999928E0
5.215003125E0,-4.122999907E-1,1.856799960E0,-7.774999738E-1
5.245004687E0,-1.500699997E0,3.587099791E0,-1.312799931E0
5.274975000E0,-2.820099831E0,3.263899803E0,-5.864999890E-1
5.294998437E0,-3.762599945E0,2.043299913E0,-5.866000056E-1
5.325000000E0,-4.855299950E0,1.972799897E0,-1.305000037E-1
5.355001562E0,-3.505100012E0,2.822199821E0,-1.443199992E0
5.385003125E0,-1.612599969E0,2.341099977E0,-6.811000109E-1
5.415006250E0,-5.534999967E-1,1.994699955E0,2.926999927E-1
5.444976562E0,-1.415300012E0,1.664899945E0,-9.670999646E-1
5.464998437E0,-1.844099998E0,1.679999948E0,-9.303999543E-1
5.495001562E0,-1.703599930E0,2.817699909E0,-7.669999599E-1
5.525003125E0,-2.586699963E0,3.161999941E0,3.495999873E-1
5.555004687E0,-2.933199883E0,2.477499962E0,-2.298000008E-1
5.584975000E0,-1.235199928E0,2.502199888E0,-3.800999820E-1
5.604998437E0,-1.026999950E0,3.444599867E0,-1.207700014E0
5.635000000E0,-1.782099962E0,3.737299919E0,-1.295799971E0
5.665001562E0,-1.304999948E0,1.172500014E0,-7.339999676E-1
5.695004687E0,-2.559399843E0,1.806999922E0,4.099999741E-2
5.725006250E0,-2.933300018E0,2.864199877E0,-2.455499887E0
5.754976562E0,-3.757499933E0,1.538999915E0,-1.942999959E-1
5.774998437E0,-3.684000015E0,2.068699837E0,7.039999962E-2
5.805001562E0,-8.815000057E-1,6.966999769E-1,2.671000063E-1
5.825025000E0,-6.211000085E-1,1.891299963E0,-1.171100020E0
5.854993750E0,-1.983299971E0,4.592299938E0,-1.002099991E0
5.884995312E0,-1.465499997E0,3.256500006E0,-1.060999990E0
5.914998437E0,-3.041100025E0,2.242199898E0,-1.009799957E0
5.945000000E0,-1.211599946E0,1.283100009E0,-1.076999977E-1
5.975001562E0,-2.026999950E0,1.681599975E0,1.045300007E0
6.005004687E0,-3.813999891E-1,2.189800024E0,-2.029999942E-1
6.035006250E0,-1.383299947E0,2.786700010E0,-9.704999924E-1
6.064976562E0,-1.028399944E0,2.755399942E0,-2.012799978E0
6.084998437E0,-2.040099859E0,2.222199917E0,-2.699800014E0
6.115001562E0,-2.063400030E0,1.658800006E0,-4.766999781E-1
6.145003125E0,-1.260399938E0,1.621899962E0,9.749999642E-2
6.175004687E0,-6.158999801E-1,2.365999937E0,-2.475999892E-1
6.204976562E0,-9.497999549E-1,3.366199970E0,-4.330999851E-1
6.224998437E0,-1.424999952E0,3.057099819E0,-1.579999924E-1
6.255000000E0,-1.042999983E0,2.417199850E0,-1.573799968E0
6.285001562E0,-1.936499953E0,2.131999969E0,-7.999999523E-1
6.315004687E0,-2.295500040E0,2.199100018E0,-7.730999589E-1
6.345006250E0,-1.521099925E0,3.026499987E0,-9.433999658E-1
6.374976562E0,-1.696799994E0,3.793099880E0,-1.305099964E0
6.394998437E0,-1.347199917E0,3.234200001E0,-1.682799935E0
6.425001562E0,-1.282999992E0,9.865999818E-1,6.164999604E-1
6.455003125E0,-1.529799938E0,1.644199967E0,7.099999487E-2
6.485004687E0,-2.025300026E0,4.034100056E0,-1.195099950E0
6.514976562E0,-2.225499868E0,4.521999836E0,-1.355000019E0
6.534998437E0,-1.889099956E0,3.435099840E0,-1.065199971E0
6.565000000E0,-1.221300006E0,1.122799993E0,-1.298399925E0
6.595001562E0,-1.176599979E0,7.800000161E-2,-1.635199904E0
6.625004687E0,-1.316399932E0,1.561999917E0,-1.557599902E0
6.655006250E0,-1.711899996E0,3.023799896E0,-1.781999916E-1
6.684976562E0,-7.748000026E-1,3.762899876E0,9.409999847E-2
6.704998437E0,-8.599999547E-2,3.723999977E0,1.724999994E-1
6.735001562E0,-4.992999732E-1,2.948199987E0,-9.976999760E-1
6.765003125E0,-1.979900002E0,2.065999985E0,-1.943599939E0
6.795004687E0,-1.897199988E0,1.370599985E0,-1.586699963E0
6.824976562E0,-1.837000012E0,1.903899908E0,-1.482800007E0
6.844998437E0,-2.006599903E0,1.923099995E0,-2.021499872E0
6.875000000E0,-1.514799953E0,2.419999838E0,-1.355899930E0
6.905001562E0,-1.368399978E0,3.963199854E0,2.659999952E-2
6.935004687E0,-2.192199945E0,4.790100098E0,1.282699943E0
6.964975000E0,-7.026999593E-1,3.410300016E0,-3.858999908E-1
6.984996875E0,2.456999868E-1,2.379099846E0,-1.355099916E0
7.014998437E0,5.173000097E-1,1.344900012E0,-1.421399951E0
7.045001562E0,-5.352999568E-1,7.789999843E-1,-1.365299940E0
7.075003125E0,-3.136600018E0,1.019999981E0,3.799999878E-2
7.105006250E0,-4.394700050E0,2.623199940E0,-6.692000031E-1
7.134976562E0,-2.086600065E0,1.954299927E0,-1.575299978E0
7.154998437E0,-1.146099925E0,1.682999969E0,-5.424999595E-1
7.185000000E0,-2.456999868E-1,3.093099833E0,2.298000008E-1
7.215001562E0,9.302999973E-1,3.416399956E0,6.561999917E-1
7.245004687E0,-7.489999533E-1,3.583499908E0,-1.218699932E0
7.274975000E0,-2.780200005E0,2.217299938E0,-6.707999706E-1
7.294996875E0,-2.080699921E0,1.454299927E0,-5.779999867E-2
7.325042187E0,-1.212599993E0,1.770399928E0,-1.079900026E0
7.355001562E0,-1.532799959E0,3.005199909E0,-2.589200020E0
7.385003125E0,-1.949999928E-1,2.335199833E0,-2.414399862E0
7.415006250E0,-1.615700006E0,-3.522999883E-1,1.577799916E0
7.444976562E0,-1.423999906E0,2.392400026E0,-3.290699959E0
7.464998437E0,-1.436399937E0,1.392799973E0,-1.626299977E0
7.495000000E0,-3.489300013E0,1.449100018E0,-2.799999900E-2
7.525003125E0,-2.032999992E0,1.473099947E0,-4.752999842E-1
7.555004687E0,-8.324999809E-1,9.697999954E-1,-1.492499948E0
7.584975000E0,-7.070999742E-1,1.498299956E0,-1.010900021E0
7.604996875E0,-7.633999586E-1,3.402299881E0,-1.181399941E0
7.635000000E0,-1.901399970E0,1.926399946E0,-4.927999973E-1
7.665001562E0,-1.509999990E0,3.103999794E-1,-1.589999944E-1
7.695003125E0,-8.646999598E-1,1.223799944E0,-9.985999465E-1
7.725004687E0,-1.711300015E0,2.693099976E0,-1.540799975E0
7.754976562E0,-1.845600009E0,1.193499923E0,-1.477899909E0
7.774998437E0,-2.365700006E0,8.790999651E-1,1.308999956E-1
7.805000000E0,-1.263000011E0,1.677899957E0,1.669999957E-2
7.835003125E0,-7.193999887E-1,1.435199976E0,-7.141999602E-1
7.865004687E0,-1.907499909E0,1.748399973E0,-9.099999815E-2
7.894975000E0,-1.192499995E0,1.586300015E0,-1.018599987E0
7.914996875E0,-1.199800014E0,1.107599974E0,-6.589999795E-1
7.945000000E0,-9.152999520E-1,1.801499963E0,-1.331000030E-1
7.975001562E0,-8.824999928E-1,2.656699896E0,-1.029600024E0
8.005003125E0,-2.333899975E0,1.979099989E0,-7.421000004E-1
8.035006250E0,-3.176499844E0,1.354499936E0,-9.220999479E-1
8.064976562E0,-2.179499865E0,2.147799969E0,-4.154999852E-1
8.084998437E0,-1.521899939E0,3.079099894E0,-1.648399949E0
8.115001562E0,-1.548099995E0,3.635299921E0,-1.596199989E0
8.145003125E0,-6.898999810E-1,2.823599815E0,-1.097199917E0
8.175004687E0,-4.131999910E-1,1.725299954E0,-4.934999943E-1
8.204975000E0,-3.876000047E-1,1.618499994E0,-2.612999976E-1
8.224996875E0,-9.699999690E-1,1.781099916E0,-1.018800020E0
8.255000000E0,-8.707000017E-1,2.718699932E0,-1.061200023E0
8.285001562E0,-3.838999867E-1,4.689199924E0,-7.914999723E-1
8.315003125E0,-7.059999704E-1,5.394799709E0,4.274999797E-1
8.345006250E0,-1.783399940E0,3.700099945E0,-1.455599904E0
8.374976562E0,-2.837299824E0,1.617599964E0,-2.327100039E0
8.394998437E0,-3.503599882E0,1.981699944E0,-1.726899981E0
8.425001562E0,-2.106699944E0,3.946099997E0,2.421999872E-1
8.455003125E0,-2.223299980E0,4.066800117E0,1.072700024E0
8.485004687E0,-6.093999743E-1,1.023900032E0,-1.108899951E0
8.514975000E0,6.462999582E-1,-2.192199945E0,-1.862999916E0
8.534998437E0,-9.519999623E-1,-8.161000013E-1,-3.343400002E0
8.565000000E0,-2.576499939E0,2.701999903E0,-2.278199911E0
8.595001562E0,-2.487400055E0,5.375899792E0,2.037999868E0
8.625003125E0,-6.833999753E-1,4.385499954E0,2.586199999E0
8.655006250E0,1.796599984E0,3.288899899E0,2.039999887E-2
8.684976562E0,5.293999910E-1,2.441900015E0,-2.053200006E0
8.704998437E0,-1.064599991E0,2.028100014E0,-1.310099959E0
8.735001562E0,-1.904299974E0,1.906899929E0,-1.428900003E0
8.765003125E0,-2.357699871E0,2.030999899E0,-1.336999983E-1
8.795004687E0,-8.707999587E-1,2.723700047E0,1.181800008E0
8.824975000E0,-8.610000014E-1,2.170500040E0,9.444999695E-1
8.844998437E0,-1.094099998E0,2.357699871E0,-1.698099971E0
8.875000000E0,-1.040199995E0,2.476099968E0,-1.855499983E0
8.905001562E0,-1.693399906E0,1.802699924E0,-8.141999841E-1
8.935003125E0,-2.446099997E0,1.208999991E0,-4.694999754E-1
8.965006250E0,-4.434999824E-1,1.026099920E0,-1.244199991E0
8.994976562E0,8.234999776E-1,3.105799913E0,-3.300599813E0
9.014998437E0,9.541999698E-1,2.702899933E0,-1.617900014E0
9.045001562E0,-1.179799914E0,1.469299912E0,1.004000008E-1
9.075003125E0,-2.500599861E0,1.657999992E0,4.716999829E-1
9.105004687E0,-1.857999921E0,2.477200031E0,2.560999990E-1
9.134976562E0,-1.884199977E0,2.731099844E0,-4.479999840E-1
9.154998437E0,-1.763999939E0,1.379400015E0,-1.539699912E0
9.185000000E0,-6.304999590E-1,1.196999997E-1,-7.231999636E-1
9.215001562E0,-3.470999897E-1,2.714299917E0,-1.684000015E0
9.245004687E0,-1.051699996E0,1.981999993E0,-6.277999878E-1
9.275006250E0,-1.399599910E0,2.064300060E0,-1.198699951E0
9.304976562E0,-1.642799973E0,2.942299843E0,-2.549999952E-1
9.325012500E0,-1.310199976E0,2.734899998E0,-1.199499965E0
9.355001562E0,-1.325299978E0,5.365999937E-1,-1.893599987E0
9.385003125E0,-1.446299911E0,1.457499981E0,-6.194999814E-1
9.415004687E0,-4.608999789E-1,2.461699963E0,-1.395900011E0
9.444976562E0,-1.241599917E0,2.733799934E0,-1.295599937E0
9.464998437E0,-1.567499995E0,2.436899900E0,-9.310999513E-1
9.495000000E0,-1.125999928E0,1.016499996E0,-7.433999777E-1
9.525003125E0,-6.653000116E-1,1.276700020E0,-7.611999512E-1
9.555004687E0,-6.441000104E-1,1.960899949E0,-7.064999938E-1
9.585006250E0,-3.987999856E-1,3.033599854E0,-5.435999632E-1
9.614976562E0,-6.417999864E-1,3.542099953E0,-1.487499952E0
9.635000000E0,-8.590999842E-1,3.534799814E0,-1.139599919E0
9.665001562E0,-1.508399963E0,3.030400038E0,-5.728999972E-1
9.695003125E0,-1.101499915E0,2.299499989E0,-1.098899961E0
9.725004687E0,-1.167599916E0,2.776999950E0,-1.427599907E0
9.754976562E0,-4.159999788E-1,2.990299940E0,-6.916999817E-1
9.774998437E0,-8.399999887E-2,3.111899853E0,-1.815999895E-1
9.805000000E0,-6.983999610E-1,3.418499947E0,-9.268999696E-1
9.825003125E0,-1.329899907E0,3.361299992E0,-6.223999858E-1
9.854993750E0,-1.284399986E0,2.536599874E0,-1.143999934E0
9.884995312E0,-1.313199997E0,2.024800062E0,-3.935999870E-1
9.914996875E0,-1.126299977E0,2.720499992E0,4.504999816E-1
9.944998437E0,-1.398299932E0,3.725499868E0,1.635999978E-1
9.975001562E0,-1.120999932E0,4.634099960E0,-2.469999939E-1
1.000500312E1,1.009299994E0,3.522699833E0,-1.261799932E0
1.003500469E1,2.224499941E0,4.203999937E-1,-1.615299940E0
1.006497656E1,-2.529999986E-2,-1.499499917E0,-1.699899912E0
1.008499844E1,-1.821699977E0,-1.544999927E-1,-1.829800010E0
1.011500000E1,-2.912699938E0,3.523299932E0,-9.318999648E-1
1.014500312E1,-4.600000102E-3,5.119999886E0,7.769999653E-2
1.017500469E1,-3.035999835E-1,4.105899811E0,-2.423999906E-1
1.020497500E1,-8.858999610E-1,2.305399895E0,-1.343799949E0
1.022499688E1,2.777999938E-1,1.550999999E0,-8.409999609E-1
1.025500000E1,6.699000001E-1,2.868700027E0,6.072999835E-1
1.028500156E1,2.803999782E-1,3.807699919E0,5.945000052E-1
1.031500312E1,-1.408299923E0,3.210299969E0,-2.345900059E0
1.034500625E1,3.339999914E-2,1.722299933E0,-1.855499983E0
1.037497656E1,-2.410599947E0,-6.599999964E-3,-5.162999630E-1
1.039499844E1,-1.856099963E0,1.435000002E-1,-1.043300033E0
1.042500000E1,7.306999564E-1,2.291699886E0,-6.554999948E-1
1.045500313E1,1.659599900E0,3.247099876E0,-2.208699942E0
1.048500469E1,-1.489799976E0,1.054299951E0,-2.125999928E0
1.051497500E1,-2.130699873E0,1.410200000E0,-3.662000000E-1
1.053499844E1,2.953999937E-1,2.631899834E0,1.901899934E0
1.056500000E1,1.209999993E-2,2.968699932E0,-1.299499989E0
1.059500156E1,-1.324499965E0,1.793999910E0,-8.899999857E-1
1.062500313E1,-5.763999820E-1,9.009999782E-2,6.087999940E-1
1.065500625E1,1.139999926E-2,1.297999918E-1,-2.027499914E0
1.068497656E1,1.351999938E-1,1.050300002E0,-1.939799905E0
1.070499844E1,-3.910999894E-1,2.070499897E0,-5.767999887E-1
1.073500156E1,-3.370999992E-1,1.346300006E0,-1.781899929E0
1.076500312E1,-2.346199989E0,-7.365999818E-1,-4.776999950E-1
1.079500469E1,5.170999765E-1,3.310999870E0,-1.400699973E0
1.082497344E1,-1.213500023E0,9.275999665E-1,-1.249999925E-2
1.084499844E1,-5.008000135E-1,9.921999574E-1,-4.526000023E-1
1.087499844E1,-5.817999840E-1,1.388099909E0,-1.228199959E0
1.090500156E1,-1.385200024E0,2.890399933E0,-2.974999845E-1
1.093500313E1,-1.380999982E-1,3.610599995E0,-1.236899972E0
1.096500625E1,1.256999969E-1,5.066999912E0,7.470999956E-1
1.099497656E1,-2.953999937E-1,9.400999546E-1,-3.373799801E0
1.101499844E1,-2.488499880E0,-1.182299972E0,-3.634399891E0
1.104500000E1,-2.750499964E0,-2.160999924E-1,-1.780200005E0
1.107500312E1,2.078700066E0,2.746599913E0,-2.070099831E0
1.110500469E1,3.899299860E0,4.519999981E0,-2.669399977E0
1.113497500E1,2.073999941E-1,5.562599659E0,1.030999944E-1
1.115499688E1,-1.605499983E0,5.291100025E0,2.040699959E0
1.118500000E1,-8.551999927E-1,3.182499886E0,8.387999535E-1
1.121500156E1,1.753999889E-1,2.035199881E0,-7.867999673E-1
1.124500312E1,2.531000078E-1,2.605499983E0,-8.715999722E-1
1.127500625E1,-2.549000084E-1,5.491099834E0,-2.235599995E0
1.130497656E1,-4.719999805E-2,3.748999834E0,-1.605499983E0
1.132499844E1,-1.449100018E0,1.510800004E0,-4.282999933E-1
1.135500000E1,-5.627999902E-1,1.460399985E0,1.624999940E-1
1.138500312E1,1.477599978E0,3.565199852E0,5.977999568E-1
1.141500469E1,6.455000043E-1,3.239399910E0,-1.218999982E0
1.144497500E1,2.064999938E-1,-3.559999764E-1,-1.549099922E0
1.146499844E1,3.260999918E-1,-1.760599971E0,-2.011100054E0
1.149500000E1,8.473999500E-1,1.649999917E-1,-1.618199944E0
1.152500156E1,3.568999767E-1,2.424399853E0,-2.503399849E0
1.155500312E1,6.265999675E-1,1.913199902E0,1.138999984E-1
1.158500625E1,-1.524000019E-1,2.298399925E0,1.752000004E-1
1.161497656E1,-2.879999951E-2,4.536900043E0,1.153200030E0
1.163499844E1,1.626999974E-1,4.288499832E0,5.957999825E-1
1.166500156E1,8.819999546E-2,2.941699982E0,-2.519299984E0
1.169500313E1,-5.266999602E-1,1.947499990E0,-2.107999921E-1
1.172500469E1,-4.994999766E-1,1.532199979E0,-3.172999918E-1
1.175497656E1,-2.469999939E-1,2.399999857E0,-1.076599956E0
1.177499844E1,-3.191999793E-1,2.682600021E0,-2.538000047E-1
1.180500000E1,1.750000007E-2,1.577299953E0,3.540000021E-1
1.183501875E1,5.044000149E-1,1.526499987E0,-3.281999826E-1
1.186500469E1,1.559000015E-1,2.309099913E0,-7.008999586E-1
1.189500625E1,2.944999933E-1,2.146999836E0,-1.612100005E0
1.192497656E1,1.056299925E0,3.400499821E0,7.279999554E-2
1.194499844E1,-2.242999971E-1,2.424000025E0,-2.556499958E0
1.197500156E1,-1.641899943E0,-1.301100016E0,-1.276799917E0
1.200500312E1,-1.348399997E0,-8.899999410E-2,-1.248799920E0
1.203500469E1,-7.429999709E-1,1.120700002E0,-2.533799887E0
1.206497656E1,6.930999756E-1,1.051699996E0,-2.618799925E0
1.208499844E1,6.714999676E-1,5.374999642E-1,-1.094599962E0
1.211500000E1,3.592999876E-1,6.365999579E-1,4.849999771E-2
1.214500156E1,7.343999743E-1,6.552999616E-1,-6.740000099E-2
1.217500469E1,-4.928999841E-1,1.148899913E0,-6.190999746E-1
1.220500625E1,3.199999779E-2,1.133899927E0,-7.168999910E-1
1.223497656E1,-1.032999977E-1,1.361999989E0,-6.658999920E-1
1.225499844E1,1.532000005E-1,1.092299938E0,-8.532999754E-1
1.228500156E1,2.391999960E-1,1.164499998E0,-9.810999632E-1
1.231500312E1,4.208000004E-1,1.631799936E0,-1.953899980E0
1.234500469E1,-4.699999839E-2,1.173300028E0,-1.730699897E0
1.237497656E1,-9.477999806E-1,7.239999771E-1,-1.299099922E0
1.239499844E1,-9.964999557E-1,9.169999957E-1,-1.309899926E0
1.242500000E1,-2.360699892E0,1.120000005E0,-3.005999923E-1
1.245500313E1,-5.148000121E-1,2.082399845E0,2.281999886E-1
1.248500469E1,1.876699924E0,3.086599827E0,-1.194000006E0
1.251500625E1,1.747399926E0,4.134999752E0,-7.978999615E-1
1.254497656E1,9.350000024E-1,2.594099998E0,-5.706999898E-1
1.256499844E1,6.854000092E-1,1.138800025E0,-8.804000020E-1
1.259500156E1,2.588999867E-1,1.212999970E-1,-7.066000104E-1
1.262500313E1,3.119999915E-2,1.330699921E0,-6.201999784E-1
1.265500469E1,4.289000034E-1,3.332799911E0,-8.858999610E-1
1.268497656E1,-8.909999579E-2,4.558099747E0,-8.927999735E-1
1.270499844E1,-6.405999660E-1,4.236499786E0,-5.526999831E-1
1.273500000E1,-7.787999511E-1,2.685799837E0,-1.187999994E-1
1.276500313E1,5.182999969E-1,1.566200018E0,-2.273999900E-1
1.279500469E1,4.968999922E-1,1.595299959E0,-1.851999909E-1
1.282497500E1,7.590999603E-1,2.461999893E0,-1.028999984E-1
1.284499688E1,1.973999888E-1,2.326499939E0,-6.279000044E-1
1.287500000E1,7.859999686E-2,1.157400012E0,-1.588899970E0
1.290500156E1,2.811999917E-1,3.301999867E-1,-7.656999826E-1
1.293500313E1,2.586999834E-1,1.176100016E0,-2.418999970E-1
1.296500469E1,-6.189999729E-2,1.863199949E0,-3.403999805E-1
1.299497656E1,1.490999907E-1,1.890699983E0,-2.861000001E-1
1.301499844E1,6.234999895E-1,2.206699848E0,-4.120000079E-2
1.304500000E1,8.887999654E-1,1.483999968E0,-9.200000018E-2
1.307500156E1,5.256999731E-1,1.587700009E0,-6.790000200E-2
1.310500469E1,1.501999944E-1,2.230399847E0,-3.610000014E-2
1.313497500E1,1.356299996E0,1.993799925E0,3.562999964E-1
1.315499688E1,9.230999947E-1,1.609599948E0,-2.396999896E-1
1.318500000E1,-7.762999535E-1,1.172799945E0,-1.432999969E-1
1.321500156E1,4.553000033E-1,1.502200007E0,-3.937999904E-1
1.324500312E1,1.090700030E0,1.318499923E0,-3.763999939E-1
1.327500469E1,6.911000013E-1,1.959800005E0,6.099999696E-2
1.330497656E1,5.087000132E-1,1.780499935E0,-2.294999957E-1
1.332502500E1,5.697000027E-1,8.341999650E-1,7.760999799E-1
1.335500000E1,1.467999965E-1,1.076300025E0,-6.601999998E-1
1.338500312E1,3.249000013E-1,1.544899940E0,-1.894899964E0
1.341500469E1,1.421999931E-1,5.266000032E-1,-1.617799997E0
1.344497500E1,-6.420999765E-1,-1.082199931E0,-7.700999975E-1
1.346499688E1,3.768999875E-1,5.643999577E-1,-8.230999708E-1
1.349500000E1,-5.827999711E-1,2.038999945E-1,1.501999944E-1
1.352500156E1,6.552999616E-1,2.057999969E-1,-2.734299898E0
1.355500312E1,4.819999933E-1,1.802500010E0,-1.526799917E0
1.358500625E1,1.417400002E0,1.103799939E0,-2.031199932E0
1.361497656E1,-9.667999744E-1,-3.324999809E-1,-1.022400022E0
1.363499844E1,-5.370000005E-2,7.012999654E-1,-1.445099950E0
1.366500000E1,-3.783999979E-1,2.999999933E-2,-1.589299917E0
1.369500313E1,7.116999626E-1,-6.679999828E-1,-1.330399990E0
1.372500469E1,6.055999994E-1,-2.784999907E-1,-1.107399940E0
1.375497500E1,2.536000013E-1,6.617000103E-1,-5.001999736E-1
1.377499688E1,2.459999919E-1,9.527999759E-1,-1.248299956E0
1.380500000E1,-3.437999785E-1,8.999999762E-1,-4.790000021E-1
1.382500781E1,-1.737999916E-1,6.405000091E-1,-8.499999531E-3
1.385499219E1,3.079999983E-2,1.214299917E0,2.976000011E-1
1.388499375E1,5.485000014E-1,1.344599962E0,1.889999956E-1
1.391499688E1,5.273999572E-1,1.302600026E0,-9.793999791E-1
1.394499844E1,-4.919999838E-2,1.389899969E0,-9.644999504E-1
1.397500000E1,4.565999806E-1,1.909299970E0,-4.560000002E-1
1.400500312E1,-2.939999998E-1,2.949399948E0,4.380000010E-2
1.403500469E1,2.449999936E-2,3.092399836E0,-8.159999847E-1
1.406497500E1,-3.874000013E-1,1.857199907E0,-4.731999934E-1
1.408499688E1,-1.806000024E-1,1.576799989E0,-1.791999936E-1
1.411500000E1,7.644000053E-1,1.095600009E0,1.063499928E0
1.414500156E1,1.914099932E0,2.281999826E0,3.666999936E-1
1.417500313E1,-8.429999650E-2,3.209199905E0,-8.463000059E-1
1.420500625E1,-6.556999683E-1,2.543900013E0,-2.210199833E0
1.423497656E1,-1.837700009E0,9.417999983E-1,-1.010800004E0
1.425499844E1,-1.773699999E0,7.285000086E-1,-6.121999621E-1
1.428500000E1,-5.072000027E-1,6.746999621E-1,7.398999929E-1
1.431500312E1,2.051199913E0,7.523999810E-1,8.524000049E-1
1.434500469E1,2.456099987E0,7.781999707E-1,4.337999821E-1
1.437497656E1,2.007400036E0,4.567999840E-1,-3.353999853E-1
1.439499844E1,7.871999741E-1,2.655999959E-1,2.304999977E-1
1.442500000E1,-3.808999956E-1,1.151099920E0,7.706999779E-1
1.445500156E1,4.043000042E-1,1.662299991E0,5.166999698E-1
1.448500312E1,-1.552999914E-1,8.418999910E-1,-7.254999876E-1
1.451500625E1,9.552999735E-1,1.014500022E0,4.838999808E-1
1.454497656E1,2.440099955E0,9.509999752E-1,9.147999883E-1
1.456499844E1,1.350899935E0,1.615099907E0,-7.092999816E-1
1.459500156E1,-6.811000109E-1,2.200099945E0,6.518999934E-1
1.462500313E1,-2.212999910E-1,1.432999969E0,4.326999784E-1
1.465500469E1,6.074999571E-1,7.416999936E-1,7.339000106E-1
1.468497656E1,1.221400023E0,8.052999973E-1,1.287000030E-1
1.470499844E1,7.928999662E-1,1.186800003E0,-1.397199988E0
1.473500000E1,-1.744999886E-1,8.906999826E-1,-8.806999922E-1
1.476500156E1,-1.246299982E0,1.116999984E-1,-9.669999480E-1
1.479500313E1,1.656000018E-1,7.989999652E-2,-2.100100040E0
1.482502813E1,-4.833000004E-1,1.580999941E-1,-2.890000045E-1
1.485497656E1,-5.790000036E-2,-9.675999880E-1,-1.751999974E0
1.487499844E1,7.908999920E-1,-5.070999861E-1,-1.100099921E0
1.490500156E1,1.508399963E0,-2.230999917E-1,-2.769999981E0
1.493500313E1,8.116999865E-1,-1.371099949E0,-8.607999682E-1
1.496500469E1,1.076699972E0,-6.122999787E-1,-8.179999888E-2
1.499497500E1,2.417999953E-1,-5.296999812E-1,-1.222800016E0
1.501499844E1,4.702000022E-1,-1.829999872E-2,-9.799000025E-1
1.504500000E1,-2.380999923E-1,-1.286199927E0,-1.839100003E0
1.507500156E1,2.175999880E-1,-1.766799927E0,-2.477999926E0
1.510500469E1,1.212999970E-1,-3.053999841E-1,-1.849399924E0
1.513500625E1,1.162999988E0,-1.424999952E0,-1.571599960E0
1.516497656E1,8.179000020E-1,-7.951999903E-1,-2.125999928E-1
1.518499844E1,1.572199941E0,9.746999741E-1,-5.978999734E-1
1.521500156E1,9.172999859E-1,3.046900034E0,-1.316599965E0
1.524500312E1,4.734999835E-1,2.370599985E0,-4.542999864E-1
1.527500469E1,1.100399971E0,5.403000116E-1,-2.640999854E-1
1.530497656E1,1.118600011E0,4.638999999E-1,-9.765999913E-1
1.532502969E1,8.933999538E-1,1.297500014E0,-1.282599926E0
1.535500000E1,4.140000045E-2,1.975699902E0,7.872999907E-1
1.538500156E1,1.237299919E0,1.311599970E0,8.811999559E-1
1.541500469E1,1.420799971E0,1.611999989E0,-3.109999932E-2
1.544500625E1,1.198599935E0,2.033699989E0,9.600000083E-2
1.547497656E1,2.777999938E-1,1.927299976E0,5.686999559E-1
1.549500000E1,-1.257099986E0,1.753099918E0,1.831299901E0
1.552500156E1,-2.739999890E-1,2.195099831E0,2.213999927E-1
1.555500312E1,5.273999572E-1,9.574999809E-1,-1.254599929E0
1.558500469E1,-4.545999765E-1,-1.005999967E-1,-1.073599935E0
1.561497656E1,-6.474999785E-1,-1.534999907E-1,3.956999779E-1
1.563499844E1,4.837999940E-1,2.545000017E-1,-1.551000029E-1
1.566500000E1,1.132399917E0,1.081799984E0,5.827000141E-1
1.569500156E1,1.004999951E-1,6.234999895E-1,-3.164999783E-1
1.572500469E1,5.570999980E-1,1.664499998E0,6.941999793E-1
1.575497500E1,1.260699987E0,3.118700027E0,2.499999851E-2
1.577499688E1,4.527999759E-1,2.170099974E0,2.163999975E-1
1.580500000E1,-5.579000115E-1,-1.456999928E-1,1.542000026E-1
1.583500156E1,2.963999808E-1,-6.891999841E-1,8.486999869E-1
1.586500313E1,7.993999720E-1,6.085999608E-1,6.793000102E-1
1.589500625E1,8.691999912E-1,1.331799984E0,-6.300000101E-2
1.592497656E1,1.319999993E-2,9.878999591E-1,6.100000143E-1
1.594499844E1,-4.329999983E-1,1.521399975E0,8.557999730E-1
1.597500000E1,1.990999877E-1,2.030699968E0,7.055999637E-1
1.600500312E1,-4.400999844E-1,2.861599922E0,-3.348999918E-1
1.603500469E1,-5.318999887E-1,4.810999930E-1,3.752000034E-1
1.606497500E1,-6.396999955E-1,-1.465399981E0,-7.902999520E-1
1.608499688E1,1.805000007E-1,2.247999907E-1,-7.637000084E-1
1.611500000E1,1.806999892E-1,1.050999984E-1,-1.372200012E0
1.614500156E1,-8.032999635E-1,-2.345999926E-1,-1.090299964E0
1.617500312E1,-6.287999749E-1,-2.392999977E-1,-1.207999945E0
1.620500625E1,-5.460000038E-2,1.291999966E-1,-2.502399921E0
1.623497656E1,-6.110000014E-1,-2.397999913E-1,-1.439599991E0
1.625499844E1,-4.341999888E-1,-1.138899922E0,-6.456999779E-1
1.628500000E1,6.499999762E-1,-4.087999761E-1,-2.301599979E0
1.631500156E1,-6.340000033E-1,6.707999706E-1,-1.666399956E0
1.634500469E1,7.741000056E-1,-5.024999976E-1,-1.789199948E0
1.637497500E1,-9.129999578E-2,-1.436399937E0,-1.846699953E0
1.639499688E1,-2.796999812E-1,-4.564999938E-1,-1.907799959E0
1.642500000E1,4.326999784E-1,-9.749999642E-2,-2.073099852E0
1.645500156E1,-1.027999967E-1,-2.486999929E-1,-1.360799909E0
1.648500313E1,2.978000045E-1,-5.981000066E-1,3.227999806E-1
1.651500469E1,1.026700020E0,2.685000002E-1,-2.449999899E-1
1.654497656E1,1.243999973E-1,2.413100004E0,7.705000043E-1
1.656499844E1,2.100999951E-1,2.604399920E0,9.025999904E-1
1.659500000E1,4.681999981E-1,7.767999768E-1,-1.267099977E0
1.662500313E1,-1.870700002E0,-3.543999791E-1,-4.156999886E-1
1.665500469E1,-6.586999893E-1,2.125999928E-1,-4.381999969E-1
1.668497500E1,1.046599984E0,4.413999915E-1,-7.463999987E-1
1.670499688E1,1.372099996E0,1.190299988E0,-9.555999637E-1
1.673500000E1,1.488999963E0,1.498699903E0,-1.393999934E0
1.676500156E1,-1.342999935E-1,7.659999728E-1,1.470799923E0
1.679500312E1,4.605000019E-1,1.767199993E0,1.408999920E0
1.682503125E1,4.772999883E-1,2.102799892E0,5.975999832E-1
1.685497656E1,2.135999948E-1,1.112399936E0,6.900999546E-1
1.687499844E1,1.320299983E0,9.048999548E-1,1.453299999E0
1.690500156E1,1.787599921E0,1.131399989E0,1.176800013E0
1.693500312E1,6.626999974E-1,1.241599917E0,8.969999850E-2
1.696500469E1,3.678999841E-1,9.730999470E-1,4.535999894E-1
1.699497500E1,1.344499946E0,7.640999556E-1,2.388999909E-1
1.701499844E1,9.493999481E-1,1.375000030E-1,4.969999939E-2
1.704500000E1,-1.553999931E-1,5.536000133E-1,-8.474999666E-1
1.707500156E1,6.159999967E-2,3.355999887E-1,6.735000014E-1
1.710500469E1,1.097599983E0,9.071999788E-1,7.378000021E-1
1.713500625E1,8.725999594E-1,8.877999783E-1,1.206000000E-1
1.716497656E1,-3.432999849E-1,4.181999862E-1,8.722999692E-1
1.718499844E1,5.029999837E-2,8.492999673E-1,1.496500015E0
1.721500156E1,5.225999951E-1,1.258799911E0,7.925999761E-1
1.724500312E1,2.122999877E-1,1.942899942E0,-1.488000005E-1
1.727500469E1,4.644999802E-1,1.235000014E0,4.012999833E-1
1.730497500E1,5.856999755E-1,5.345999599E-1,-8.008999825E-1
1.732499844E1,-2.793000042E-1,9.309999645E-2,2.404999882E-1
1.735500000E1,-3.172000051E-1,2.274999917E-1,-4.129000008E-1
1.738500156E1,8.050999641E-1,4.942999780E-1,-5.381999612E-1
1.741500313E1,1.649399996E0,6.909999847E-1,-1.646299958E0
1.744500625E1,9.470999837E-1,7.658999562E-1,-8.348000050E-1
1.747497656E1,-9.457999468E-1,-1.866799951E0,-9.779999852E-1
1.749499844E1,-1.072799921E0,-2.203699827E0,-1.111699939E0
1.752500156E1,-6.989999861E-2,-1.709999889E-1,-2.572299957E0
1.755500313E1,-7.060999870E-1,-5.170999765E-1,-3.165199995E0
1.758500469E1,-2.384999990E-1,-1.439999938E0,-2.779599905E0
1.761497500E1,4.560000002E-1,-1.085999966E0,-3.684999943E-1
1.763499844E1,1.637099981E0,-4.080999792E-1,-1.163299918E0
1.766500000E1,8.633999825E-1,5.779999867E-2,-9.708999991E-1
1.769500156E1,3.795000017E-1,-4.764999747E-1,-2.733700037E0
1.772500312E1,-1.886999905E-1,-4.090999961E-1,-1.351599932E0
1.775500625E1,-1.938000023E-1,4.259999990E-1,6.889999658E-2
1.778497656E1,1.271399975E0,3.780999780E-1,-1.348000020E-1
1.780499844E1,7.410999537E-1,3.058999777E-1,-3.968999982E-1
1.783500156E1,1.486400008E0,-1.064599991E0,6.699999794E-3
1.786500312E1,9.204999804E-1,-8.136999607E-1,-8.664000034E-1
1.789500469E1,-6.360999942E-1,8.537999988E-1,-1.529500008E0
1.792497500E1,4.769999906E-2,1.136600018E0,-4.662999809E-1
1.794499844E1,2.266999930E-1,1.140999913E0,2.953999937E-1
1.797500000E1,1.140299916E0,2.127399921E0,-8.788999915E-1
1.800500156E1,1.584999919E0,1.965899944E0,-5.343999863E-1
1.803500469E1,6.441999674E-1,1.281999946E-1,2.812999785E-1
1.806500625E1,-1.445999891E-1,-2.461999953E-1,1.730499983E0
1.809497656E1,-8.607999682E-1,2.745999813E0,1.303900003E0
1.811499844E1,-6.469999552E-1,3.866899967E0,1.047399998E0
1.814500156E1,8.332999945E-1,2.931200027E0,5.266999602E-1
1.817500312E1,5.220000148E-1,2.601999938E-1,3.998999894E-1
1.820500469E1,-1.384000033E-1,-1.380599976E0,1.553999931E-1
1.823497656E1,7.591999769E-1,1.110700011E0,3.682999909E-1
1.825499844E1,1.427899957E0,2.290199995E0,-3.695999980E-1
1.828500000E1,1.979999989E-2,1.122999936E-1,3.414999843E-1
1.831500156E1,3.779000044E-1,3.932999969E-1,1.500800014E0
1.834500469E1,1.506299973E0,1.823599935E0,1.002300024E0
1.837500625E1,-1.699000001E-1,7.432000041E-1,-8.976999521E-1
1.840497656E1,-3.786000013E-1,8.118000031E-1,5.084999800E-1
1.842499844E1,6.538999677E-1,7.802000046E-1,1.485499978E0
1.845500156E1,3.251000047E-1,1.234599948E0,1.305000037E-1
1.848500313E1,4.147999883E-1,1.039600015E0,-1.414600015E0
1.851500469E1,1.961999983E-1,2.217999995E-1,1.704999924E0
1.854497656E1,-1.384099960E0,1.055899978E0,1.997499943E0
1.856499844E1,-1.416399956E0,1.733699918E0,3.506000042E-1
1.859500000E1,1.052000001E-1,1.130399942E0,1.259699941E0
1.862500156E1,1.380599976E0,1.389999967E-2,-3.998000026E-1
1.865500469E1,1.109399915E0,4.893999994E-1,-1.161399961E0
1.868497500E1,7.774999738E-1,-5.040999651E-1,-2.008399963E0
1.870499688E1,5.429999903E-2,-1.225799918E0,-1.624099970E0
1.873500000E1,-6.859999895E-1,-1.221400023E0,-1.485000014E0
1.876500156E1,-5.661000013E-1,-1.023699999E0,-1.814700007E0
1.879500312E1,-3.506999910E-1,-2.812999785E-1,-2.368999958E0
1.882500625E1,-1.222399950E0,-5.579000115E-1,-1.607599974E0
1.885497656E1,-1.968899965E0,-9.529999495E-1,-6.836000085E-1
1.887499844E1,-8.833000064E-1,1.092000008E-1,-8.693000078E-1
1.890500000E1,1.987999976E-1,4.721999764E-1,-1.933499932E0
1.893500312E1,-5.709999800E-2,3.416000009E-1,-2.708199978E0
1.896500469E1,-5.699999630E-3,-1.998699903E0,-1.050999999E0
1.899497500E1,2.370999902E-1,-1.392599940E0,-9.002999663E-1
1.901499688E1,4.068999887E-1,-9.631999731E-1,-1.434999943E0
1.904500000E1,2.261999995E-1,-3.887999952E-1,-1.988999963E0
1.907500156E1,-2.748999894E-1,1.363999993E-1,-1.330999970E0
1.910500312E1,-2.494999915E-1,1.982099891E0,-1.363999993E-1
1.913500469E1,-1.530999988E-1,1.240199924E0,1.282799959E0
1.916497656E1,1.167299986E0,-7.260999680E-1,1.938000023E-1
1.918499844E1,3.998000026E-1,-5.605999827E-1,-1.029500008E0
1.921500000E1,-8.208999634E-1,1.767699957E0,-1.872799993E0
1.924500156E1,2.392999977E-1,2.076699972E0,-2.935000062E-1
1.927500469E1,1.765399933E0,1.392899990E0,7.741999626E-1
1.930497500E1,1.480999947E0,9.654999971E-1,9.309999943E-1
1.932502188E1,1.411499977E0,9.562000036E-1,1.480000019E-1
1.935500000E1,-1.158999950E-1,1.937399983E0,3.930999935E-1
1.938500156E1,3.120999932E-1,2.627399921E0,2.935099840E0
1.941500313E1,3.637000024E-1,1.088699937E0,2.242599964E0
1.944500469E1,-5.719999671E-1,2.017000020E-1,-1.318099976E0
1.947497656E1,-2.821999788E-1,1.799999923E-2,-5.796999931E-1
1.949499844E1,-5.080000162E-1,-1.296999902E-1,1.106999964E-1
1.952500000E1,3.137999773E-1,5.737999678E-1,1.218799949E0
1.955500156E1,1.308099985E0,4.310999811E-1,1.238099933E0
1.958500469E1,1.572099924E0,1.124099970E0,1.004099965E0
1.961497500E1,1.144199967E0,1.198599935E0,8.962000012E-1
1.963499844E1,6.574000120E-1,5.638999939E-1,1.013999939E0
1.966500000E1,3.854999840E-1,1.483999938E-1,1.310299993E0
1.969500156E1,6.889999658E-2,9.915999770E-1,-2.636999786E-1
1.972500312E1,-8.410999775E-1,9.011999965E-1,-4.885999858E-1
1.975500625E1,5.072000027E-1,3.226999938E-1,-4.814999998E-1
1.978497656E1,5.541999936E-1,5.834999681E-1,4.905999899E-1
1.980499844E1,-2.413999885E-1,9.715999961E-1,8.901999593E-1
1.983500156E1,4.481999874E-1,1.179499984E0,1.678599954E0
1.986500312E1,8.416000009E-1,2.071699858E0,8.710999489E-1
1.989500469E1,2.543999851E-1,1.424999952E0,1.392000020E-1
1.992497500E1,-1.015799999E0,6.953999996E-1,-1.537699938E0
1.994499844E1,-8.030999899E-1,-3.096999824E-1,-6.973999739E-1
1.997500000E1,-9.037999511E-1,-2.276900053E0,-1.262099981E0
2.000500156E1,-4.050000012E-1,-1.002099991E0,-1.378899932E0
2.003500469E1,-1.630999893E-1,-1.270499945E0,-1.697699904E0
2.006500625E1,4.404999912E-1,-1.448799968E0,-4.111999989E0
2.009497656E1,3.949999809E-1,-1.710699916E0,-2.450899839E0
2.011499844E1,-6.313999891E-1,-1.643799901E0,-1.370399952E0
2.014500156E1,-2.994999886E-1,4.163999856E-1,-1.632699966E0
2.017500312E1,-1.071799994E0,8.170999885E-1,-1.359499931E0
2.020500469E1,-2.830999792E-1,-8.694999814E-1,-3.263999820E-1
2.023497500E1,4.351999760E-1,-8.690999746E-1,-5.273000002E-1
2.025499688E1,-2.109999955E-2,-4.347999990E-1,-1.490499973E0
2.028500000E1,-2.647999823E-1,-3.895999789E-1,-1.358899951E0
2.031500156E1,8.546999693E-1,-1.442999989E-1,-1.527699947E0
2.034500469E1,8.856999874E-1,-1.251000017E-1,-1.020599961E0
2.037500625E1,5.709999800E-2,-1.952999979E-1,-2.340399981E0
2.040497656E1,-4.895999730E-1,-1.264999956E-1,-7.339000106E-1
2.042499844E1,1.938000023E-1,-2.379999906E-1,1.009099960E0
2.045500000E1,1.130299926E0,1.284099936E0,-5.029999837E-2
2.048500313E1,2.057999969E-1,2.239399910E0,-8.939999938E-1
2.051500469E1,-5.689999834E-2,1.930399895E0,8.091999888E-1
2.054497500E1,5.399000049E-1,6.851999760E-1,1.304999948E0
2.056499844E1,7.795000076E-1,1.086599946E0,1.692299962E0
2.059500000E1,-6.882999539E-1,1.451699972E0,7.929999828E-1
2.062500156E1,8.100000210E-3,8.575999737E-1,1.325999975E0
2.065500469E1,1.493299961E0,2.193899870E0,1.863799930E0
2.068500625E1,6.633999944E-1,2.617499828E0,1.594099998E0
2.071497656E1,2.120999992E-1,2.552199841E0,-2.987999916E-1
2.073499844E1,-1.420000009E-2,9.851999879E-1,4.889999703E-2
2.076500156E1,-9.776999950E-1,5.079999939E-2,-1.450599909E0
2.079500312E1,-1.538900018E0,-7.585999966E-1,-1.015499949E0
2.082500469E1,-3.290999830E-1,-1.376299977E0,4.561999738E-1
2.085497656E1,1.394199967E0,-5.336999893E-1,1.195199966E0
2.087499844E1,1.598799944E0,1.791999936E-1,1.899299979E0
2.090500000E1,2.615200043E0,1.034500003E0,1.856099963E0
2.093500156E1,2.256399870E0,9.957999587E-1,2.089200020E0
2.096500469E1,1.463999897E-1,2.217299938E0,9.692999721E-1
2.099500625E1,-1.170599937E0,3.779099941E0,-6.940999627E-1
2.102497656E1,-1.594399929E0,2.266799927E0,-1.238799930E0
2.104500000E1,-2.154299974E0,1.258799911E0,-2.272999883E-1
2.107500156E1,-1.733199954E0,-7.591999769E-1,-1.360199928E0
2.110500312E1,-6.700999737E-1,-1.261799932E0,-6.578999758E-1
2.113500469E1,-1.609999873E-2,3.979999945E-2,6.811000109E-1
2.116497656E1,7.831000090E-1,1.153699994E0,1.332899928E0
2.118499844E1,9.624999762E-1,2.068199873E0,1.053599954E0
2.121500000E1,1.787499905E0,1.421299934E0,1.845999956E-1
2.124500156E1,1.314000040E-1,-2.400599957E0,-2.225999981E-1
2.127500469E1,-1.173599958E0,-2.551300049E0,-1.327000022E0
2.130500625E1,-2.793000042E-1,-4.542999864E-1,-4.929800034E0
2.133497813E1,3.682999909E-1,-1.159099936E0,-5.810800076E0
2.135500000E1,-5.731999874E-1,-2.240200043E0,-4.653999805E0
2.138500156E1,3.057000041E-1,-2.613199949E0,-1.409399986E0
2.141500313E1,-2.549999952E-1,-9.731999636E-1,-5.816999674E-1
2.144500469E1,-3.711999953E-1,4.025000036E-1,8.338999748E-1
2.147497656E1,3.152999878E-1,7.989999652E-1,6.966999769E-1
2.149499844E1,5.429999828E-1,8.416000009E-1,8.826999664E-1
2.152500000E1,2.547999918E-1,2.292899847E0,-7.192999721E-1
2.155500156E1,-3.441999853E-1,1.843799949E0,-2.626699924E0
2.158500469E1,-1.565199971E0,-4.838999808E-1,-2.544199944E0
2.161497500E1,1.137999967E-1,-2.686800003E0,-3.223599911E0
2.163499688E1,2.716000080E-1,-3.421199799E0,-2.415799856E0
2.166500000E1,9.903999567E-1,-3.569099903E0,-1.724999994E-1
2.169500156E1,1.329499960E0,-9.768999815E-1,9.328999519E-1
2.172500312E1,1.222599983E0,4.356800079E0,1.890999973E-1
2.175500469E1,-3.076999784E-1,8.126899719E0,1.709499955E0
2.178497656E1,1.718000025E-1,3.213399887E0,1.036999971E-1
2.180499844E1,-8.473999500E-1,-5.561999679E-1,-3.118000031E-1
2.183500000E1,-1.967999935E0,-3.275499821E0,-6.962999701E-1
2.186500312E1,6.879999489E-2,-1.634400010E0,-6.493999958E-1
2.189500469E1,1.627699971E0,2.266099930E0,8.669999987E-2
2.192497500E1,1.485299945E0,4.768899918E0,1.710299969E0
2.194499688E1,7.570999861E-1,3.920799971E0,4.738999903E-1
2.197500000E1,-9.017999768E-1,9.329999685E-1,1.339499950E0
2.200500156E1,4.081999958E-1,1.160099983E0,2.275500059E0
2.203500313E1,7.526999712E-1,1.990399957E0,1.166000009E0
2.206500469E1,7.308999896E-1,1.039399981E0,-1.340000033E-1
2.209497656E1,9.246000051E-1,-2.390999943E-1,-1.100799918E0
2.211499844E1,9.969999641E-2,-8.154000044E-1,-1.382799983E0
2.214500000E1,-8.629999757E-1,-3.235999942E-1,-8.269000053E-1
2.217500312E1,-2.225999981E-1,1.243199944E0,1.202299953E0
2.220500469E1,4.728999734E-1,1.896699905E0,1.388999939E0
2.223497500E1,9.839999676E-2,8.147999644E-1,5.189999938E-1
2.225499688E1,-3.549999744E-2,3.297999799E-1,1.549899936E0
2.228500000E1,1.034600019E0,5.906999707E-1,1.335399985E0
2.231500156E1,3.429999948E-1,9.862999916E-1,4.298000038E-1
2.234500312E1,-6.709999591E-2,8.148999810E-1,-1.299999934E-2
2.237500625E1,3.655000031E-1,5.679000020E-1,-8.917999864E-1
2.240497656E1,-1.730000041E-2,-3.956999779E-1,-3.380999863E-1
2.242499844E1,-3.828999996E-1,-1.139999926E-2,-4.329999983E-1
2.245500000E1,-5.449999571E-1,5.723999739E-1,2.039999962E-1
2.248500313E1,7.220000029E-2,4.913999736E-1,-7.060999870E-1
2.251500469E1,-4.796999991E-1,-9.785999656E-1,-1.133099914E0
2.254497500E1,-1.446999907E0,-4.964999855E-1,-1.178200006E0
2.256499688E1,-2.168999910E-1,-4.730999768E-1,-1.768799901E0
2.259500000E1,6.647999883E-1,-6.703999639E-1,-2.018800020E0
2.262500313E1,2.752999961E-1,-1.602899909E0,-3.275599957E0
2.265500312E1,-9.839999676E-2,-9.099999666E-1,-2.793699980E0
2.268500625E1,-1.148899913E0,-4.662999809E-1,-8.971999884E-1
2.271497656E1,2.126999944E-1,-8.313999772E-1,-1.938599944E0
2.273499844E1,-4.025999904E-1,-5.238999724E-1,-1.232200027E0
2.276500156E1,-9.119999409E-2,3.179000020E-1,-5.920999646E-1
2.279500312E1,6.347000003E-1,-7.050999999E-1,-1.662599921E0
2.282501719E1,-4.241999984E-1,-1.025599957E0,-7.658999562E-1
2.285497500E1,-5.899999756E-3,-1.533000022E-1,-2.888000011E-1
2.287499688E1,7.939999700E-1,4.605999887E-1,-1.141600013E0
2.290500000E1,4.107999802E-1,1.809899926E0,-1.091199994E0
2.293500156E1,6.086999774E-1,2.169199944E0,-7.037000060E-1
2.296500313E1,3.199999928E-1,9.674999714E-1,-1.086599946E0
2.299500469E1,1.764999926E-1,-2.606999874E-1,-3.890999854E-1
2.302497656E1,6.843000054E-1,-9.866999984E-1,2.199999988E-2
2.304499844E1,-4.283999801E-1,7.699999958E-3,-3.474999964E-1
2.307500156E1,2.476999909E-1,2.127300024E0,6.833999753E-1
2.310500313E1,1.962099910E0,2.881899834E0,1.085299969E0
2.313500469E1,4.605000019E-1,2.150199890E0,-2.919999883E-2
2.316497500E1,-9.192000031E-1,1.581799984E0,8.427000046E-1
2.318499844E1,6.338999867E-1,1.577799916E0,1.722700000E0
2.321500000E1,7.789999992E-2,1.822399974E0,3.948999941E-1
2.324500156E1,-5.812000036E-1,9.864999652E-1,5.669999868E-2
2.327500312E1,4.740999937E-1,2.310999930E-1,1.485299945E0
2.330500625E1,1.121399999E0,-6.250000000E-2,7.429999709E-1
2.333497656E1,6.402999759E-1,-1.609999985E-1,-8.301999569E-1
2.335499844E1,4.351999760E-1,-1.220999956E-1,-1.238999963E-1
2.338500156E1,8.223999739E-1,2.458999902E-1,1.817099929E0
2.341500313E1,6.947999597E-1,1.852299929E0,7.504000068E-1
2.344500469E1,1.736199975E0,8.431999683E-1,-1.133999974E-1
2.347497500E1,1.281299949E0,-1.420999914E-1,7.353999615E-1
2.349499844E1,1.030699968E0,5.449999571E-1,1.539199948E0
2.352500000E1,1.034399986E0,1.275099993E0,9.566999674E-1
2.355500156E1,4.997999966E-1,9.614999890E-1,-6.100999713E-1
2.358500469E1,6.722999811E-1,3.082999885E-1,2.204999924E-1
2.361500625E1,1.295000017E-1,5.656999946E-1,6.970999837E-1
2.364497656E1,-7.099999785E-1,1.425400019E0,5.640999675E-1
2.366500000E1,3.951999843E-1,8.083999753E-1,-3.179999813E-2
2.369500156E1,2.277999967E-1,-3.262999952E-1,7.102000117E-1
2.372500312E1,3.050000072E-1,-6.026999950E-1,-2.664999962E-1
2.375500469E1,1.469999924E-2,2.490999997E-1,-1.137300014E0
2.378497656E1,-1.217599988E0,2.279999852E-2,-1.007200003E0
2.380499844E1,-1.396899939E0,-1.035200000E0,-1.275900006E0
2.383500000E1,-2.043999881E-1,-9.281999469E-1,-2.080699921E0
2.386500156E1,1.347700000E0,-5.381999612E-1,-2.057199955E0
2.389500469E1,1.322499990E0,-1.349900007E0,-1.139299989E0
2.392500625E1,8.659999818E-2,-2.199399948E0,3.017999828E-1
2.395497656E1,4.733999968E-1,-7.489999533E-1,-1.390100002E0
2.397500000E1,7.066999674E-1,2.467999905E-1,-2.985199928E0
2.400500156E1,-1.395999938E-1,-2.696000040E-1,-2.832299948E0
2.403500313E1,-3.470000029E-1,-9.736999869E-1,-3.053900003E0
2.406500469E1,-9.759999514E-1,-7.706999779E-1,-2.085700035E0
2.409497656E1,6.667000055E-1,-4.924999774E-1,-1.197000027E0
2.411499844E1,1.104799986E0,-4.099999964E-1,8.439999819E-2
2.414500000E1,1.839299917E0,7.313999534E-1,1.449999958E-2
2.417500156E1,1.776199937E0,2.000000000E0,-2.132999897E-1
2.420500469E1,2.514999807E-1,1.925599933E0,5.776000023E-1
2.423500625E1,-8.554999828E-1,6.468999982E-1,-3.489999846E-2
2.426497656E1,-6.891999841E-1,2.915999889E-1,2.869999968E-2
2.428499844E1,7.743999958E-1,1.520999968E-1,-4.943999946E-1
2.431500156E1,1.349599957E0,1.053099990E0,-1.187699914E0
2.434500312E1,3.930999935E-1,1.855999947E0,-3.093000054E-1
2.437500469E1,-3.897999823E-1,2.384199858E0,2.502999902E-1
2.440497656E1,-4.373999834E-1,1.264199972E0,1.857100010E0
2.442499844E1,-2.642999887E-1,1.409099936E0,1.529799938E0
2.445500000E1,8.558999896E-1,1.940999985E0,1.393399954E0
2.448500156E1,1.025300026E0,1.187099934E0,2.148000002E-1
2.451500469E1,2.255999893E-1,-4.948999882E-1,-5.421999693E-1
2.454497500E1,-4.150999784E-1,2.449999899E-1,-1.609999873E-2
2.456499688E1,-2.118999958E-1,1.037999988E0,4.393000007E-1
2.459499844E1,-8.648999929E-1,1.602800012E0,6.341999769E-1
2.462500156E1,-3.200999796E-1,-2.987999916E-1,6.179999709E-1
2.465500312E1,-2.070000023E-2,-6.420999765E-1,-9.688999653E-1
2.468500469E1,1.911999941E0,7.608999610E-1,3.761999905E-1
2.471497656E1,1.262599945E0,9.962999821E-1,9.096999764E-1
2.473499844E1,3.321999907E-1,4.734999835E-1,1.480099916E0
2.476500000E1,-8.282999992E-1,1.463000029E-1,1.815999985E0
2.479500156E1,-2.368999869E-1,8.312000036E-1,9.969999641E-2
2.482500625E1,9.106999636E-1,1.511899948E0,3.716999888E-1
2.485497500E1,1.357399940E0,1.051599979E0,1.500100017E0
2.487499688E1,9.176999927E-1,9.721999764E-1,1.014099956E0
2.490500000E1,-3.412999809E-1,1.191699982E0,-1.730000041E-2
2.493500156E1,-1.395499945E0,1.134500027E0,-1.832000017E-1
2.496500313E1,-7.853999734E-1,4.661999941E-1,1.438300014E0
2.499500469E1,-4.039999843E-2,-9.849999845E-2,-6.800000072E-1
2.502497656E1,3.469999880E-2,-1.070599914E0,-1.202000022E0
2.504499844E1,8.439999819E-2,-1.416399956E0,-7.897999883E-1
2.507500000E1,-9.417999983E-1,-7.335999608E-1,-4.621999860E-1
2.510500156E1,-1.588999927E-1,-2.144999951E-1,-1.332799911E0
2.513500469E1,1.001999974E-1,-5.072000027E-1,-3.056099892E0
2.516497500E1,1.019899964E0,3.410999775E-1,-2.291300058E0
2.518499688E1,4.194999933E-1,-3.797000051E-1,-1.842499971E0
2.521500000E1,-1.508499980E0,-1.067899942E0,-1.311999917E0
2.524500156E1,-7.849999666E-1,-1.617100000E0,-7.048000097E-1
2.527500312E1,-9.144999981E-1,-9.906999469E-1,-6.161999702E-1
2.530500625E1,2.245999873E-1,1.045300007E0,-1.632799983E0
2.533497656E1,1.342999935E-1,-1.099999994E-1,-2.756000042E0
2.535499844E1,-7.113999724E-1,-5.778999925E-1,-1.753099918E0
2.538500000E1,-1.403299928E0,-5.004999638E-1,-7.540999651E-1
2.541500313E1,-3.455999792E-1,-1.110899925E0,-1.179799914E0
2.544500469E1,-1.012199998E0,-9.439999610E-2,-9.453999996E-1
2.547497500E1,-1.211999953E-1,1.131500006E0,-5.509999767E-2
2.549499844E1,5.356999636E-1,4.779999852E-1,-6.316999793E-1
2.552500000E1,-3.373000026E-1,2.651999891E-1,-3.905999959E-1
2.555500156E1,-1.316999942E-1,9.118999839E-1,8.167999983E-1
2.558500312E1,6.707999706E-1,1.509999990E0,1.056999937E-1
2.561500625E1,2.709999867E-2,1.298799992E0,7.376999855E-1
2.564497656E1,6.793999672E-1,3.671000004E-1,1.797000021E-1
2.566499844E1,5.616999865E-1,-4.025000036E-1,2.260999978E-1
2.569500156E1,-4.431999922E-1,1.460999995E-1,1.230399966E0
2.572500312E1,1.678999960E-1,2.812999964E0,1.190099955E0
2.575500469E1,-6.888999939E-1,2.635099888E0,3.469999880E-2
2.578497500E1,-1.059999943E0,-8.326999545E-1,-5.640999675E-1
2.580499688E1,-5.814999938E-1,-9.715999961E-1,-2.522000074E-1
2.583500000E1,1.414999962E-1,1.718400002E0,2.362999916E-1
2.586500156E1,1.116299987E0,1.980999947E0,1.351699948E0
2.589500313E1,7.879999876E-1,6.489999890E-1,1.226999998E0
2.592500625E1,1.094200015E0,8.795999885E-1,3.604999781E-1
2.595497656E1,-2.723000050E-1,6.182999611E-1,1.131799936E0
2.597499844E1,-4.569000006E-1,7.494999766E-1,8.231999874E-1
2.600500000E1,-2.514999807E-1,3.975999951E-1,5.275999904E-1
2.603500313E1,-1.703999937E-1,-1.624999940E-1,-9.774999619E-1
2.606500469E1,3.563999832E-1,-1.093999982E0,1.678999960E-1
2.609497500E1,-8.524999619E-1,6.262999773E-1,2.030999899E0
2.611499688E1,-1.959699988E0,1.803599954E0,1.724599957E0
2.614500000E1,8.679999411E-2,2.604499817E0,1.119099975E0
2.617500156E1,1.475299954E0,1.963699937E0,1.078400016E0
2.620500312E1,5.162000060E-1,9.779999405E-2,1.705099940E0
2.623500625E1,1.871999949E-1,-8.299999833E-1,-2.099999934E-1
2.626497656E1,4.626999795E-1,1.129999943E-2,-1.080799937E0
2.628499844E1,4.019999877E-2,4.319999740E-2,-1.019400001E0
2.631500156E1,4.359999895E-1,3.646999896E-1,-1.688599944E0
2.634500312E1,-4.799999893E-1,-4.933999777E-1,-8.341999650E-1
2.637500469E1,-9.867999554E-1,-1.029199958E0,-9.364999533E-1
2.640497500E1,-1.502299905E0,-2.931499958E0,3.211999834E-1
2.642499844E1,-1.709299922E0,-1.337199926E0,-1.171899915E0
2.645500000E1,2.755100012E0,-1.240000010E0,-1.566699982E0
2.648500156E1,2.105200052E0,2.219000012E-1,-2.225699902E0
2.651500313E1,2.642000020E-1,-7.975999713E-1,-9.771999717E-1
2.654500625E1,-6.065999866E-1,-4.445999861E-1,-2.999099970E0
2.657497656E1,-7.669999599E-1,-1.206699967E0,-3.884499788E0
2.659499844E1,-9.550999999E-1,-1.603299975E0,-2.654999971E0
2.662500156E1,-1.071200013E0,-1.764599919E0,-1.136399984E0
2.665500312E1,-2.006999999E-1,-1.040400028E0,-1.858000010E-1
2.668500469E1,8.337999582E-1,6.639999747E-1,-8.210999966E-1
2.671497656E1,5.381999612E-1,2.081399918E0,-3.064999878E-1
2.673499844E1,1.058599949E0,1.893000007E0,-1.398199916E0
2.676500000E1,1.300699949E0,8.574000001E-1,-1.919699907E0
2.679500156E1,5.286999941E-1,-3.638999760E-1,-6.922000051E-1
2.682502188E1,4.831999838E-1,-1.638799906E0,7.354999781E-1
2.685500625E1,1.101499915E0,-1.583400011E0,2.541999817E-1
2.688497656E1,5.051000118E-1,1.256699920E0,1.643999964E-1
2.690500000E1,5.766999722E-1,3.137499809E0,-1.098999977E-1
2.693500156E1,8.044999838E-1,2.905900002E0,4.194999933E-1
2.696500313E1,-3.258000016E-1,2.293699980E0,2.280999869E-1
2.699500469E1,-5.309999585E-1,1.086499929E0,2.742999792E-1
2.702497656E1,-5.094000101E-1,1.687199950E0,4.973999858E-1
2.704499844E1,-4.399999976E-3,2.188400030E0,1.004099965E0
2.707500000E1,3.858999908E-1,4.366999865E-1,4.901999831E-1
2.710500313E1,1.217499971E0,-5.727999806E-1,-1.059999987E-1
2.713500469E1,1.927500010E0,1.301100016E0,1.427199960E0
2.716500625E1,3.561999798E-1,1.062799931E0,5.357999802E-1
2.719497656E1,-4.714999795E-1,-8.389999717E-2,-2.570999861E-1
2.721499844E1,8.473999500E-1,-1.799999969E-3,-2.694999874E-1
2.724500156E1,6.383999586E-1,6.933000088E-1,5.776000023E-1
2.727500312E1,8.155999780E-1,3.545999825E-1,1.843299985E0
2.730500469E1,9.356999993E-1,1.401000023E-1,2.257099867E0
2.733497656E1,6.182000041E-1,9.283999801E-1,7.335000038E-1
2.735499844E1,8.560000062E-1,1.049399972E0,4.695999920E-1
2.738500000E1,8.536999822E-1,1.897999942E-1,-6.830000132E-2
2.741500156E1,-1.178399920E0,-7.637999654E-1,-5.378999710E-1
2.744500469E1,-7.288999557E-1,-6.796999574E-1,4.502999783E-1
2.747497500E1,2.252999991E-1,6.710999608E-1,-4.360999763E-1
2.749499688E1,1.809999943E-1,3.902999759E-1,-1.094300032E0
2.752500000E1,-1.611299992E0,-2.351000011E-1,3.662000000E-1
2.755500156E1,-6.444999576E-1,1.640999913E0,3.409199953E0
2.758500312E1,3.633799791E0,5.445799828E0,5.643000007E-1
2.761500469E1,2.104300022E0,4.394499779E0,6.169999838E-1
2.764497656E1,-5.196999907E-1,-1.513799906E0,-2.544299841E0
2.766499844E1,-7.027999759E-1,-3.297399998E0,-2.012899876E0
2.769500000E1,-3.170000017E-1,-1.143399954E0,-4.084399700E0
2.772500156E1,1.482999921E-1,-1.007900000E0,-5.242099762E0
2.775500469E1,-8.698999882E-1,-2.782799959E0,-4.888099670E0
2.778497500E1,-2.827999890E-1,-1.800999999E0,-3.894599915E0
2.780499688E1,-9.339999557E-1,-2.532799959E0,-1.429499984E0
2.783500000E1,-1.263499975E0,-4.727799892E0,3.962299824E0
2.786500156E1,1.767799973E0,-4.371599674E0,7.091899872E0
2.789500313E1,1.182199955E0,3.469099998E0,4.111199856E0
2.792500469E1,2.789999843E-1,7.423399925E0,-9.453999996E-1
2.795497656E1,5.273000002E-1,3.310699940E0,-3.617699862E0
2.797499844E1,-2.492999882E-1,-1.293900013E0,-4.114999771E0
2.800500000E1,-1.401700020E0,-3.790999889E0,-4.235199928E0
2.803500313E1,-4.456999898E-1,-2.394599915E0,-4.546499729E0
2.806500469E1,-7.333999872E-1,-6.301000118E-1,-1.510100007E0
2.809497500E1,-6.765999794E-1,-3.617999852E-1,-6.589999795E-1
2.811499844E1,-1.199399948E0,-4.559999704E-2,-6.575999856E-1
2.814500000E1,-4.585999846E-1,1.796099901E0,-3.018999994E-1
2.817500156E1,2.294800043E0,3.351500034E0,5.098000169E-1
2.820500312E1,2.618000031E0,3.201900005E0,1.375800014E0
2.823500469E1,1.673599958E0,1.726499915E0,1.340199947E0
2.826497656E1,1.184999943E-1,1.523100019E0,6.789000034E-1
2.828499844E1,-7.756999731E-1,2.145599842E0,-7.145000100E-1
2.831500156E1,-8.481000066E-1,7.863999605E-1,-8.643999696E-1
2.834500312E1,-1.324299932E0,1.565999985E-1,-5.241000056E-1
2.837500469E1,-5.884999633E-1,4.879999757E-1,1.049600005E0
2.840497500E1,-9.329999983E-2,1.563199997E0,1.324899912E0
2.842499688E1,1.908999979E-1,2.418400049E0,7.559999824E-1
2.845500000E1,3.154999912E-1,1.112399936E0,1.060799956E0
2.848500156E1,4.842999876E-1,5.519999936E-2,6.620000005E-1
2.851500313E1,1.065199971E0,-1.022999957E-1,-1.636999995E-1
2.854500625E1,9.662999511E-1,-5.180999637E-1,2.581999898E-1
2.857497656E1,7.679999620E-2,1.011999995E-1,8.868999481E-1
2.859499844E1,9.846999645E-1,9.217999578E-1,1.401000023E0
2.862500156E1,5.715000033E-1,9.916999936E-1,1.375599980E0
2.865500312E1,-1.043900013E0,3.509999812E-1,-7.978999615E-1
2.868500469E1,6.082999706E-1,1.394999921E-1,2.150999904E-1
2.871497500E1,1.028699994E0,9.660999775E-1,1.011899948E0
2.873499688E1,4.099999741E-2,8.150999546E-1,6.771999598E-1
2.876500000E1,-7.075999975E-1,3.287000060E-1,2.994999886E-1
2.879500156E1,-1.054099917E0,8.503999710E-1,2.262599945E0
2.882500781E1,1.282999992E0,4.869999886E-1,-1.589999944E-1
2.885500625E1,3.288999796E-1,2.763999999E-1,5.622999668E-1
2.888497656E1,4.487999976E-1,9.047999978E-1,-3.465999961E-1
2.890499844E1,3.315999806E-1,1.358999968E0,-1.126699924E0
2.893500156E1,3.341999948E-1,4.165999889E-1,-9.218999743E-1
2.896500313E1,-2.003099918E0,-1.861299992E0,-1.244799972E0
2.899500469E1,-2.462399960E0,-2.587499857E0,-1.471699953E0
2.902497500E1,-1.435400009E0,-5.101999640E-1,-2.592000008E0
2.904499844E1,-3.405999839E-1,-1.112499952E0,-2.516000032E0
2.907500000E1,1.135599971E0,2.056999952E-1,-1.208699942E0
2.910500156E1,1.486999989E0,-9.397999644E-1,-9.213999510E-1
2.913500469E1,-3.885000050E-1,-2.599000037E-1,-1.299600005E0
2.916500625E1,-5.690000057E-1,-6.240000129E-1,-6.269999743E-1
2.919497656E1,1.986999959E-1,-1.207700014E0,-2.016200066E0
2.921499844E1,-1.224399924E0,-6.268999577E-1,-7.450999618E-1
2.924500156E1,-5.969999731E-2,1.002999991E-1,-1.179199934E0
2.927500312E1,-6.269999593E-2,-6.442999840E-1,-1.398299932E0
2.930500469E1,6.832000017E-1,-4.799999893E-1,-1.699399948E0
2.933497656E1,5.892999768E-1,-5.960999727E-1,-1.990399957E0
2.935499844E1,-4.279999807E-2,-1.574999988E-1,-1.897899985E0
2.938500000E1,-5.159999728E-1,1.579999924E-1,-9.529999495E-1
2.941500156E1,5.020000041E-2,4.029999971E-1,-4.346999824E-1
2.944500313E1,1.087999940E0,1.445799947E0,3.978999853E-1
2.947500625E1,1.736400008E0,2.490099907E0,2.622599840E0
2.950497656E1,7.821999788E-1,2.078999996E0,8.133999705E-1
2.952499844E1,-5.852999687E-1,1.690499902E0,-1.907999963E-1
2.955500156E1,-4.014999866E-1,5.507000089E-1,2.779999971E-1
2.958500312E1,2.978999913E-1,-9.939999878E-2,1.568000019E-1
2.961500469E1,4.492999911E-1,8.445999622E-1,4.605999887E-1
2.964497656E1,4.611999989E-1,1.024699926E0,6.523000002E-1
2.966499844E1,-2.707000077E-1,1.292999983E0,1.268899918E0
2.969500000E1,8.410000056E-2,1.690199971E0,8.331999779E-1
2.972500156E1,8.695999980E-1,1.357199907E0,3.070999980E-1
2.975500469E1,3.012000024E-1,8.579999954E-2,-2.829999849E-2
2.978500625E1,5.710999966E-1,1.076599956E0,4.918999970E-1
2.981497813E1,3.009999916E-2,1.096899986E0,-1.077999949E0
2.983499844E1,-3.473999798E-1,8.502999544E-1,-6.144999862E-1
2.986500156E1,-8.768999577E-1,4.476999938E-1,1.499999911E-1
2.989500313E1,-3.659999743E-2,6.821999550E-1,1.147300005E0
2.992500469E1,2.511999905E-1,5.809000134E-1,3.416999876E-1
2.995497656E1,1.223699927E0,2.039999887E-2,7.732999921E-1
2.997499844E1,6.022999883E-1,-1.709000021E-1,9.376999736E-1
3.000500000E1,3.534999788E-1,3.610000014E-1,2.854000032E-1
3.003500156E1,8.014000058E-1,8.105999827E-1,1.641600013E0
3.006500469E1,9.732999802E-1,3.362999856E-1,5.540999770E-1
3.009500625E1,3.949999809E-1,7.221999764E-1,1.081200004E0
3.012497656E1,-1.446999907E-1,8.241999745E-1,-7.259999961E-2
3.014499844E1,1.869999990E-2,5.116999745E-1,-2.258999944E-1
3.017500156E1,-5.993999839E-1,7.098000050E-1,-5.020000041E-2
3.020500312E1,-9.431999922E-1,3.659999967E-1,-1.030999944E-1
3.023500469E1,-3.242000043E-1,2.671000063E-1,-6.588999629E-1
3.026497656E1,4.512999952E-1,1.278000027E-1,-8.601999879E-1
3.028499844E1,-4.231999815E-1,-2.752999961E-1,-1.677699924E0
3.031500000E1,-9.445999861E-1,-9.853000045E-1,-1.393000007E0
3.034500156E1,-3.957999945E-1,-6.966999769E-1,-1.222999930E0
3.037500469E1,5.784999728E-1,-4.999999888E-3,-1.690099955E0
3.040497500E1,6.499999668E-3,-1.204800010E0,-1.976300001E0
3.042499688E1,-1.446999907E-1,-2.164599895E0,-1.309099913E0
3.045500000E1,-1.679999977E-1,-4.176999927E-1,-1.909599900E0
3.048500156E1,-8.386999965E-1,6.588000059E-1,-1.582399964E0
3.051500313E1,-4.900000058E-3,-5.697000027E-1,-1.573099971E0
3.054500469E1,-8.981999755E-1,-1.060199976E0,-6.686999798E-1
3.057497656E1,2.160999924E-1,-7.858999968E-1,-9.222999811E-1
3.059499844E1,8.179000020E-1,-3.360999823E-1,-2.026499987E0
3.062500000E1,1.477999985E-1,-3.619000018E-1,-2.576799870E0
3.065500156E1,-1.374099970E0,-1.350600004E0,-9.887999892E-1
3.068500469E1,-3.041999936E-1,-1.471300006E0,-1.038499951E0
3.071497500E1,7.606999874E-1,4.655999839E-1,1.348000020E-1
3.073499688E1,6.773999929E-1,2.615900040E0,1.056599975E0
3.076500000E1,1.058699965E0,3.463899851E0,-8.876000047E-1
3.079500156E1,-6.679999828E-2,2.046000004E0,-5.361999869E-1
3.082500313E1,-6.090999842E-1,-5.385000110E-1,1.159999985E-2
3.085500469E1,-2.628000081E-1,-1.065599918E0,5.101000071E-1
3.088497656E1,9.339999408E-2,1.491999924E-1,3.992999792E-1
3.090499844E1,2.639999986E-1,1.050799966E0,9.113999605E-1
3.093500000E1,7.956999540E-1,2.600999832E0,1.042299986E0
3.096500313E1,5.591999888E-1,2.689299822E0,1.401999891E-1
3.099500469E1,7.889999449E-2,9.277999997E-1,8.394999504E-1
3.102497500E1,4.305000007E-1,5.776000023E-1,2.894999981E-1
3.104499688E1,7.033999562E-1,7.703999877E-1,2.091999948E-1
3.107500000E1,2.659999952E-2,1.467899919E0,8.699999750E-2
3.110500156E1,-4.239999875E-2,1.527599931E0,7.093999982E-1
3.113500312E1,1.498000026E-1,1.655000001E-1,2.241999954E-1
3.116500625E1,1.425199986E0,3.203999996E-1,7.773000002E-1
3.119497656E1,1.448799968E0,4.851999879E-1,1.203999966E-1
3.121499844E1,2.444999963E-1,2.741000056E-1,-2.637999952E-1
3.124500156E1,-7.639999688E-2,9.999999776E-3,2.065999955E-1
3.127500312E1,1.912999898E-1,-4.393000007E-1,1.163699985E0
3.130500469E1,4.945999980E-1,4.395999908E-1,1.191900015E0
3.133497500E1,3.452000022E-1,1.299000025E0,3.792999983E-1
3.135499688E1,6.619999558E-2,7.992999554E-1,3.445000052E-1
3.138500000E1,3.343999982E-1,3.883999884E-1,9.101999998E-1
3.141500156E1,1.077399969E0,5.629999638E-1,3.586999774E-1
3.144500313E1,-8.720000088E-2,8.265999556E-1,-9.049999714E-2
3.147500625E1,2.457999885E-1,5.893999934E-1,4.275999963E-1
3.150497656E1,2.317999899E-1,1.990000010E-1,-2.759000063E-1
3.152499844E1,-3.480000049E-2,1.929999888E-1,-5.899999756E-3
3.155500000E1,-4.287999868E-1,5.347999930E-1,2.363999933E-1
3.158500313E1,8.536999822E-1,7.299000025E-1,-2.142999917E-1
3.161500469E1,2.890000045E-1,9.863999486E-1,5.697999597E-1
3.164497500E1,-2.586999834E-1,5.529999733E-2,-3.346999884E-1
3.166499844E1,2.229999937E-2,-6.937999725E-1,-1.573999971E-1
3.169500000E1,4.254999757E-1,-1.199100018E0,-2.979099989E0
3.172500156E1,-8.216999769E-1,-9.470999837E-1,-3.615199804E0
3.175500312E1,1.233999953E-1,-2.133399963E0,-1.604999900E0
3.178500469E1,-9.129999578E-2,-2.339099884E0,-2.028499842E0
3.181497656E1,-6.875999570E-1,3.300999999E-1,-9.485999942E-1
3.183500000E1,-9.935999513E-1,5.800999999E-1,-7.096999884E-1
3.186500156E1,5.133000016E-1,1.008999944E-1,-1.115999937E0
3.189500313E1,4.499000013E-1,-4.512999952E-1,-7.425000072E-1
3.192500469E1,-3.533999920E-1,-8.115999699E-1,-3.120999932E-1
3.195497500E1,-1.741999984E-1,-7.565000057E-1,-5.315999985E-1
3.197499844E1,5.769999698E-2,1.909999922E-2,-1.470899940E0
3.200500000E1,8.842999935E-1,6.200000048E-1,-1.165199995E0
3.203500156E1,5.259999633E-1,-5.813999772E-1,-7.401999831E-1
3.206500313E1,1.868999898E-1,-2.247400045E0,-1.477399945E0
3.209500625E1,-7.033999562E-1,-1.784799933E0,-6.177999973E-1
3.212497656E1,-3.173999786E-1,2.387999892E-1,-7.305999994E-1
3.214499844E1,7.181000113E-1,1.447799921E0,-3.439999744E-2
3.217500156E1,1.235099912E0,2.210999966E0,6.570000052E-1
3.220500313E1,1.546100020E0,2.728199959E0,-2.985000014E-1
3.223500469E1,8.113999963E-1,1.814399958E0,1.446999907E-1
3.226497500E1,3.509999812E-2,8.435999751E-1,5.805000067E-1
3.228499844E1,-2.958000004E-1,6.197999716E-1,2.131000012E-1
3.231500000E1,-3.224000037E-1,1.945299983E0,-5.722000003E-1
3.234500156E1,4.156999886E-1,2.152799845E0,6.746999621E-1
3.237500469E1,1.031700015E0,2.476300001E0,7.293999791E-1
3.240500625E1,2.056999952E-1,1.341399908E0,8.379999548E-2
3.243497656E1,1.754999906E-1,-6.399999838E-3,-3.729999810E-2
3.245500000E1,-3.885000050E-1,-6.552999616E-1,1.313000023E-1
3.248500156E1,4.686999917E-1,-8.469999582E-2,1.342999935E-1
3.251500312E1,5.277999640E-1,8.123999834E-1,7.398999929E-1
3.254500469E1,-8.399999700E-3,7.831999660E-1,1.007599950E0
3.257497500E1,8.772999644E-1,3.831000030E-1,1.299799919E0
3.259499844E1,2.124999911E-1,5.629000068E-1,6.596999764E-1
3.262500000E1,2.578999996E-1,8.654999733E-1,1.085699916E0
3.265500156E1,1.174199939E0,8.079999685E-1,1.306599975E0
3.268500312E1,5.968999863E-1,5.601999760E-1,-4.420999885E-1
3.271500625E1,4.767999947E-1,-7.040999532E-1,2.311999947E-1
3.274497656E1,1.050999984E-1,-3.729999810E-2,9.249999523E-1
3.276500000E1,-1.576000005E-1,9.641000032E-1,8.033999801E-1
3.279500156E1,-7.943999767E-1,1.073300004E0,3.822000027E-1
3.282503906E1,3.055000007E-1,7.573999763E-1,-6.978999972E-1
3.285500469E1,2.999999851E-4,1.420999914E-1,7.178999782E-1
3.288497656E1,7.608999610E-1,3.289999813E-2,-9.154999852E-1
3.290499844E1,3.849999979E-2,5.257999897E-1,2.311999947E-1
3.293500000E1,2.140000015E-1,1.163999915E0,-2.824999988E-1
3.296500156E1,1.038999915E0,-4.183999896E-1,-9.334999919E-1
3.299500469E1,1.043999940E-1,-7.486000061E-1,-1.304399967E0
3.302500625E1,-5.986999869E-1,-2.840000018E-2,-6.850000024E-1
3.305497656E1,-8.685999513E-1,-1.285499930E0,-1.441100001E0
3.307499844E1,-3.225999773E-1,-1.173399925E0,-7.161999941E-1
3.310500156E1,2.915999889E-1,-7.071999907E-1,-1.826099992E0
3.313500313E1,-7.699999958E-3,-4.419999942E-2,-1.056599975E0
3.316500469E1,-3.800999820E-1,-5.342000127E-1,-1.759999990E-2
3.319497656E1,-1.222999990E-1,-3.399999812E-3,-1.388799906E0
3.321499844E1,-8.709999919E-2,-1.812999994E-1,-1.486599922E0
3.324500000E1,-1.219999976E-2,-6.764999628E-1,-1.821200013E0
3.327500156E1,-7.978000045E-1,-1.583599925E0,-1.562199950E0
3.330500469E1,-6.715999842E-1,-5.582999587E-1,-1.213599920E0
3.332501875E1,-8.669999987E-2,-3.585999906E-1,-1.203899980E0
3.335499688E1,2.728999853E-1,5.279999971E-2,-1.158999950E-1
3.338500000E1,9.833999872E-1,7.518999577E-1,-2.870000005E-1
3.341500156E1,5.223999619E-1,3.240000010E-1,-1.459100008E0
3.344500312E1,-1.548299909E0,6.899999827E-2,-8.636999726E-1
3.347500469E1,-9.595999718E-1,-3.703999817E-1,-6.304000020E-1
3.350497656E1,2.177999914E-1,-1.499999966E-2,-5.421999693E-1
3.352499844E1,6.193000078E-1,2.273999900E-1,1.769999973E-2
3.355500000E1,1.329199910E0,9.784999490E-1,4.156999886E-1
3.358500312E1,1.606199980E0,1.956599951E0,8.899999782E-3
3.361500469E1,2.413999885E-1,1.425099969E0,7.515000105E-1
3.364497500E1,-8.273999691E-1,5.992999673E-1,7.845999599E-1
3.366499688E1,-1.150499940E0,7.213000059E-1,7.698999643E-1
3.369500000E1,-8.299999870E-3,1.793499947E0,9.163999557E-1
3.372500156E1,5.421000123E-1,2.665599823E0,1.155699968E0
3.375500312E1,3.634999990E-1,2.063499928E0,-2.429999970E-2
3.378500469E1,2.405999899E-1,-6.899999827E-2,-3.064000010E-1
3.381497656E1,1.163999960E-1,-3.833999932E-1,9.219999611E-2
3.383499844E1,2.714999914E-1,1.539999992E-2,-5.949999765E-2
3.386500000E1,5.604999661E-1,6.676999927E-1,5.451999903E-1
3.389500312E1,1.108799934E0,1.801999927E0,1.609499931E0
3.392500469E1,1.998099923E0,1.951200008E0,1.277499914E0
3.395497500E1,7.185999751E-1,-4.813999832E-1,-9.052000046E-1
3.397499688E1,-3.005000055E-1,-1.349799991E0,-4.796999991E-1
3.400500000E1,-8.944000006E-1,-9.368000031E-1,9.402999878E-1
3.403500156E1,-4.250000045E-2,1.365599990E0,1.929099917E0
3.406500313E1,7.929999828E-1,1.996499896E0,8.833999634E-1
3.409500625E1,-7.079999894E-2,8.606999516E-1,-1.199999928E0
3.412497656E1,1.374000013E-1,-1.966999918E-1,5.685999990E-1
3.414499844E1,-3.075999916E-1,8.500000089E-2,1.695899963E0
3.417500000E1,-1.671999991E-1,4.895999730E-1,7.666999698E-1
3.420500313E1,5.625000000E-1,1.847999990E-1,1.093999967E-1
3.423500469E1,5.691999793E-1,5.051000118E-1,7.311999798E-1
3.426497500E1,2.811999917E-1,3.976999819E-1,3.662999868E-1
3.428499688E1,1.600999981E-1,9.874999523E-1,2.251999974E-1
3.431500000E1,-7.940999866E-1,1.427399993E0,-1.308999956E-1
3.434500156E1,-4.546999931E-1,2.698000073E-1,-6.488999724E-1
3.437500312E1,4.502999783E-1,-1.246500015E0,-1.501299977E0
3.440500625E1,4.245999753E-1,-1.566200018E0,-2.186100006E0
3.443497656E1,1.296999902E-1,-2.333699942E0,-1.436299920E0
3.445499844E1,-1.837999970E-1,-1.481099963E0,-8.768999577E-1
3.448500000E1,3.608999848E-1,4.399999976E-2,-1.655799985E0
3.451500312E1,2.769999802E-1,3.833999932E-1,-1.695099950E0
3.454500469E1,-8.532999754E-1,6.449999660E-2,-5.026999712E-1
3.457497500E1,-9.224999547E-1,-1.322999895E-1,-7.561999559E-1
3.459499688E1,-1.290099978E0,2.203999907E-1,-1.441399932E0
3.462500000E1,-1.456200004E0,-4.423999786E-1,-9.860000014E-1
3.465500156E1,-8.172000051E-1,-6.596999764E-1,-1.598099947E0
3.468500312E1,-6.808999777E-1,-1.082800031E0,-1.833899975E0
3.471500625E1,-9.860000014E-1,-1.108099937E0,-1.549799919E0
3.474497656E1,-5.174999833E-1,1.782999933E-1,-4.523999989E-1
3.476499844E1,2.177999914E-1,2.588000000E-1,-5.220999718E-1
3.479500156E1,1.068999991E-1,1.730000041E-2,-2.470999956E-1
3.482500312E1,1.765999943E-1,-4.175999761E-1,-4.332999885E-1
3.485500469E1,3.199999919E-3,-3.879999816E-1,-7.448999882E-1
3.488497500E1,-3.159999847E-2,-2.316000015E-1,-4.133999944E-1
3.490499688E1,2.134999931E-1,-2.507999837E-1,-7.613999844E-1
3.493500000E1,-4.645999968E-1,2.004999965E-1,2.311999947E-1
3.496500156E1,-7.982999682E-1,1.365399957E0,-1.471000016E-1
3.499500469E1,-2.610999942E-1,2.788899899E0,1.383799911E0
3.502500625E1,5.687999725E-1,2.561499834E0,1.152300000E0
3.505497656E1,5.519999862E-1,1.379799962E0,-5.999999642E-1
3.507499844E1,1.242999956E-1,7.960000038E-1,-3.346999884E-1
3.510500000E1,7.090000063E-2,5.162999630E-1,3.522000015E-1
3.513500313E1,1.138999984E-1,1.636399984E0,1.014599919E0
3.516500469E1,2.830999792E-1,2.028199911E0,4.830999970E-1
3.519497656E1,-3.835999966E-1,1.283800006E0,4.381999969E-1
3.521499688E1,3.443999887E-1,1.910699964E0,1.534999967E0
3.524500000E1,1.861799955E0,2.871099949E0,2.050400019E0
3.527500156E1,9.847999811E-1,2.279899836E0,1.943599939E0
3.530500469E1,7.141000032E-1,8.388999701E-1,2.903999984E-1
3.532502031E1,-2.419999987E-1,-6.297999620E-1,6.771999598E-1
3.535499688E1,1.779999882E-1,-1.101499915E0,-1.400299907E0
3.538499844E1,3.384999931E-1,-2.982999980E-1,-1.038699985E0
3.541500156E1,1.535899997E0,4.849999845E-1,1.338099957E0
3.544500312E1,-1.034699917E0,1.094999984E-1,2.893999815E-1
3.547500469E1,-8.552999496E-1,2.413999885E-1,9.416999817E-1
3.550497500E1,4.499999806E-2,5.740999579E-1,4.824800014E0
3.552499844E1,2.477699995E0,5.400999784E-1,3.802699804E0
3.555500000E1,3.446499825E0,2.460899830E0,-1.152999997E-1
3.558500156E1,2.115700006E0,3.259399891E0,-3.486000001E-1
3.561500469E1,-1.370000001E-2,1.509599924E0,-1.500899911E0
3.564500625E1,-7.942000031E-1,5.749999881E-1,-1.761899948E0
3.567497656E1,-8.872999549E-1,-2.497999966E-1,-1.008100033E0
3.569500000E1,-1.192999959E0,-1.185799956E0,-2.060000040E-2
3.572500156E1,-9.702000022E-1,-1.601499915E0,-1.856299996E0
3.575500312E1,8.285999894E-1,-4.429999739E-2,-2.501499891E0
3.578500469E1,-5.180000067E-1,-4.226999879E-1,-1.424499989E0
3.581497656E1,1.173799992E0,-1.834699988E0,-1.966099977E0
3.583499844E1,1.948199987E0,-1.423299909E0,-1.184800029E0
3.586500000E1,1.330399990E0,-4.633999765E-1,-1.581200004E0
3.589500312E1,6.445999742E-1,-7.993999720E-1,-8.170999885E-1
3.592500469E1,-1.049799919E0,-1.547299981E0,-2.648499966E0
3.595500625E1,-8.822999597E-1,-2.041699886E0,-1.232499957E0
3.598497656E1,1.560999900E-1,-4.646999836E-1,-9.703999758E-1
3.600500000E1,-1.199999941E-3,1.414699912E0,-1.768999934E0
3.603500156E1,4.745000005E-1,1.589699984E0,-1.839299917E0
3.606500313E1,1.571999937E-1,-1.355999947E0,-1.133399963E0
3.609500469E1,-7.637000084E-1,-1.996699929E0,-1.279199958E0
3.612497656E1,1.228000000E-1,-1.001699924E0,-1.241199970E0
3.614499844E1,5.048999786E-1,-1.001500010E0,-7.849999666E-1
3.617500000E1,4.996999800E-1,-9.070999622E-1,-8.611999750E-1
3.620500156E1,5.260999799E-1,-2.402999997E-1,-8.143999577E-1
3.623500469E1,7.452999949E-1,1.083199978E0,3.326999843E-1
3.626497500E1,9.982999563E-1,2.173599958E0,-5.827000141E-1
3.628499688E1,4.412999749E-1,1.337299943E0,-7.247999907E-1
3.631499844E1,-5.056999922E-1,-1.369199991E0,2.001999915E-1
3.634500156E1,1.119999960E-2,-2.094300032E0,-7.035999894E-1
3.637500312E1,-7.425000072E-1,-1.513399959E0,-7.044999599E-1
3.640500469E1,-1.236099958E0,4.061999917E-1,3.319000006E-1
3.643497656E1,-7.685999870E-1,3.293099880E0,5.695999861E-1
3.645499844E1,-2.390999943E-1,4.292099953E0,5.867999792E-1
3.648500000E1,9.690000117E-2,3.176399946E0,6.330999732E-1
3.651500156E1,7.908999920E-1,8.705999851E-1,4.323000014E-1
3.654500469E1,1.489999983E-2,-1.030599952E0,1.046100020E0
3.657497500E1,8.999999845E-4,-7.519999892E-2,1.103399992E0
3.659499688E1,5.261999965E-1,2.465600014E0,2.059900045E0
3.662500000E1,5.945999622E-1,6.027999878E0,1.388799906E0
3.665500156E1,-1.476999968E-1,1.981999993E0,-1.647000015E-1
3.668500312E1,-7.075999975E-1,-2.226799965E0,-7.645999789E-1
3.671500625E1,-1.024199963E0,-2.677899837E0,-9.257999659E-1
3.674497656E1,9.769999981E-2,-2.633999884E-1,1.268000007E-1
3.676499844E1,3.940000013E-2,1.781299949E0,1.234799981E0
3.679500000E1,2.609999850E-2,2.255300045E0,1.181699991E0
3.682500781E1,-2.982999980E-1,6.068999767E-1,1.059999987E-1
3.685500469E1,-7.360000163E-2,-1.753000021E-1,9.807999730E-1
3.688497500E1,1.463099957E0,1.536099911E0,3.065599918E0
3.690499688E1,1.417299986E0,3.133100033E0,2.277299881E0
3.693500000E1,5.649999976E-1,4.027400017E0,8.675999641E-1
3.696500156E1,1.585099936E0,7.242999673E-1,-4.116999805E-1
3.699500313E1,-7.102999687E-1,-1.897099972E0,-9.358999729E-1
3.702500469E1,-1.247699976E0,-1.980099916E0,-8.678999543E-1
3.705497656E1,-7.145000100E-1,-2.058999985E-1,-3.987999856E-1
3.707499844E1,3.639999777E-2,5.357999802E-1,-5.245999694E-1
3.710500000E1,2.644999921E-1,8.894000053E-1,3.176999986E-1
3.713500313E1,2.030999959E-1,1.398699999E0,1.056100011E0
3.716500469E1,-1.024999991E-1,9.623999596E-1,1.591999978E-1
3.719497656E1,-3.673999906E-1,-8.973999619E-1,-2.894999981E-1
3.721499688E1,-1.876299977E0,-2.282999903E-1,-1.920799971E0
3.724500000E1,-1.590799928E0,-6.632999778E-1,-1.935799956E0
3.727500156E1,2.261999995E-1,-6.639999747E-1,-3.547399998E0
3.730500312E1,2.660999894E-1,-6.031999588E-1,-3.113999844E0
3.732503125E1,4.915999770E-1,-2.779099941E0,-2.004699945E0
3.735499688E1,-8.829999715E-2,-3.321699858E0,-1.156099916E0
3.738499844E1,7.914999723E-1,-2.373999953E-1,-1.977599978E0
3.741500000E1,-2.987000048E-1,-1.335999966E-1,-1.402799964E0
3.744500312E1,-1.353500009E0,-9.300000034E-3,2.111999989E-1
3.747500469E1,-4.479999840E-1,-1.143499970E0,1.026999950E-1
3.750497500E1,-2.002999932E-1,1.290999949E-1,-1.231599927E0
3.752499688E1,-7.098000050E-1,6.583999991E-1,-9.127999544E-1
3.755500000E1,-4.921000004E-1,1.620000042E-2,-1.095399976E0
3.758500156E1,-7.760999799E-1,4.975999892E-1,-2.105099916E0
3.761500312E1,-8.246999979E-1,7.012000084E-1,-5.834999681E-1
3.764500625E1,1.467999965E-1,-1.222199917E0,-5.611999631E-1
3.767497656E1,-9.219999909E-1,-1.238099933E0,-9.897999763E-1
3.769499844E1,-6.157999635E-1,-3.055999875E-1,-4.253000021E-1
3.772500156E1,-5.260000005E-2,1.283599973E0,-1.229200006E0
3.775500312E1,-2.336999923E-1,2.591500044E0,1.902999878E-1
3.778500469E1,2.939999998E-1,2.093299866E0,2.912999988E-1
3.781497656E1,-1.275799990E0,1.163200021E0,2.199999988E-2
3.783499844E1,-1.472899914E0,1.115499973E0,4.838999808E-1
3.786500000E1,-1.436599970E0,1.141099930E0,1.321599960E0
3.789500156E1,-9.999999776E-3,1.337599993E0,6.524999738E-1
3.792500312E1,3.289999962E-1,2.303400040E0,1.029199958E0
3.795500625E1,5.842999816E-1,3.573400021E0,2.195899963E0
3.798497656E1,7.999999821E-2,2.653899908E0,6.929000020E-1
3.800499844E1,-7.744999528E-1,3.711999953E-1,-2.078000009E-1
3.803500156E1,-6.800999641E-1,-2.619199991E0,-5.625000000E-1
3.806500313E1,2.893999815E-1,-1.902999997E0,3.704999983E-1
3.809500469E1,3.818999827E-1,1.041000009E0,1.377300024E0
3.812497656E1,3.323999941E-1,2.292000055E0,9.156000018E-1
3.814499844E1,3.859999776E-2,2.345700026E0,1.006099939E0
3.817500000E1,7.645999789E-1,1.837899923E0,1.167400002E0
3.820500156E1,5.634999871E-1,1.699699998E0,1.688599944E0
3.823500313E1,5.989999771E-1,2.378799915E0,9.600999951E-1
3.826500625E1,2.078000009E-1,2.250099897E0,1.676999927E-1
3.829497656E1,5.539999604E-1,-2.360999882E-1,-5.924000144E-1
3.831499844E1,-6.451999545E-1,-1.230700016E0,-5.988999605E-1
3.834500156E1,-2.152199984E0,-3.726999760E-1,4.405999780E-1
3.837500312E1,-1.544199944E0,1.510999918E0,1.518800020E0
3.840500469E1,8.937999606E-1,1.917499900E0,8.935999870E-1
3.843497656E1,1.592700005E0,2.989099979E0,4.576999843E-1
3.845499844E1,1.403499961E0,3.245599985E0,7.349999547E-1
3.848500000E1,-5.005999804E-1,8.680999875E-1,7.810999751E-1
3.851500156E1,-1.331000030E-1,-3.216099977E0,-2.602999806E-1
3.854500312E1,2.148299932E0,-3.363899946E0,-2.173300028E0
3.857500625E1,2.388599873E0,-1.774999976E0,-2.864399910E0
3.860497656E1,1.908199906E0,-1.235299945E0,-4.975599766E0
3.862499844E1,-6.505999565E-1,-1.684099913E0,-4.774199963E0
3.865500156E1,-2.668099880E0,-2.575000048E0,-2.353299856E0
3.868500312E1,-1.018700004E0,6.710000038E-1,-9.580999613E-1
3.871500469E1,-2.778999805E-1,1.328499913E0,9.575999975E-1
3.874497656E1,1.991999984E0,1.306199908E0,1.747900009E0
3.876499844E1,1.757499933E0,3.596999943E-1,5.058999658E-1
3.879500000E1,-3.379999846E-2,-8.817999959E-1,-4.251999855E-1
3.882500312E1,-4.253999889E-1,-1.200999975E0,-2.281999826E0
3.885500469E1,-5.806999803E-1,-9.617999792E-1,-3.000699997E0
3.888500625E1,-9.045999646E-1,-1.896999925E-1,-2.486899853E0
3.891497656E1,-1.327799916E0,5.505999923E-1,-2.194200039E0
3.893499844E1,-1.146799922E0,4.221999943E-1,-8.248999715E-1
3.896500156E1,-3.019999899E-2,6.933000088E-1,9.218999743E-1
3.899500313E1,1.956799984E0,9.558999538E-1,-1.121999979E0
3.902500469E1,8.987999558E-1,1.287099957E0,-8.190000057E-2
3.905497656E1,6.266999841E-1,8.344999552E-1,-4.230999947E-1
3.907499844E1,3.599999845E-1,3.814999759E-1,-5.665999651E-1
3.910500000E1,7.829999924E-2,8.594999909E-1,-1.390200019E0
3.913500156E1,1.457999945E-1,6.189000010E-1,-1.210500002E0
3.916500469E1,1.184599996E0,1.551000029E-1,4.839999974E-1
3.919497500E1,1.576099992E0,9.217000008E-1,8.546999693E-1
3.921499688E1,1.738299966E0,2.309900045E0,5.536000133E-1
3.924500000E1,8.467999697E-1,1.413999915E0,7.493999600E-1
3.927500156E1,3.449999988E-1,5.430999994E-1,6.099999882E-3
3.930500312E1,1.283200026E0,4.393999875E-1,1.891199946E0
3.933500469E1,-4.205999970E-1,3.606099844E0,-7.040999532E-1
3.936497656E1,-3.836999834E-1,7.530000061E-2,1.953999996E-1
3.938499844E1,-9.981999993E-1,-1.265499949E0,-1.618699908E0
3.941500000E1,-1.199399948E0,-8.375999928E-1,-1.862999916E0
3.944500156E1,-2.568999827E-1,8.431999683E-1,-7.344999909E-1
3.947500469E1,4.553999901E-1,-2.359999903E-2,5.051000118E-1
3.950497500E1,-7.999999449E-3,-6.470999718E-1,2.833099842E0
3.952499688E1,1.547199965E0,4.098999798E-1,1.869099975E0
3.955500000E1,2.939599991E0,4.266999960E-1,1.556199908E0
3.958500156E1,1.279699922E0,-7.933999896E-1,2.088099957E0
3.961500312E1,1.956399918E0,5.349999666E-1,3.081699848E0
3.964500625E1,1.162999988E0,2.505399942E0,-1.886599898E0
3.967497656E1,-1.718400002E0,1.077799916E0,-5.188999772E-1
3.969499844E1,-4.087399960E0,-3.551000059E-1,6.631899834E0
3.972500156E1,-1.813199997E0,-4.188999832E-1,5.916399956E0
3.975500312E1,1.686299920E0,2.858500004E0,7.754999995E-1
3.978500469E1,3.612999916E-1,3.243099928E0,-2.313499928E0
3.981497500E1,-2.934499979E0,-6.769999862E-1,-3.785399914E0
3.983499688E1,-2.275099993E0,-1.716699958E0,-3.264999866E0
3.986500000E1,-1.987800002E0,-2.146699905E0,-4.307300091E0
3.989500156E1,-2.033699989E0,-1.024999991E-1,-3.341899872E0
3.992500312E1,5.449999571E-1,-1.011999995E-1,-1.656599998E0
3.995500469E1,3.028999865E-1,3.516999781E-1,-2.169999927E-1
3.998497656E1,2.289000005E-1,6.157000065E-1,6.462000012E-1
4.000499844E1,-1.339000016E-1,4.416999817E-1,6.130999923E-1
4.003500000E1,-3.689999878E-1,5.385999680E-1,-5.457999706E-1
4.006500313E1,-8.805999756E-1,-3.702999949E-1,-1.528299928E0
4.009500469E1,-4.122000039E-1,-1.533399940E0,-1.153100014E0
4.012497500E1,-1.963000000E-1,-1.207499981E0,-1.033800006E0
4.014499844E1,9.489999712E-2,-7.231000066E-1,-1.210899949E0
4.017500000E1,-1.561999917E-1,-5.853999853E-1,-5.062999725E-1
4.020500156E1,-4.959999919E-1,3.240000084E-2,1.651999950E-1
4.023500313E1,-8.824999928E-1,1.554199934E0,-3.351999819E-1
4.026500625E1,-1.133099914E0,1.196099997E0,-5.744999647E-1
4.029497656E1,-2.630999982E-1,1.332499981E0,1.141799927E0
4.031499844E1,9.732999802E-1,2.103999853E0,3.583999872E-1
4.034500156E1,1.081599951E0,2.425299883E0,-1.359999925E-2
4.037500312E1,9.509999752E-1,1.024999976E0,-1.237000003E-1
4.040500469E1,-1.094999984E-1,8.051999807E-1,5.220000148E-1
4.043497500E1,1.863999963E-1,1.783499956E0,7.164999843E-1
4.045499688E1,3.193999827E-1,2.169699907E0,9.705999494E-1
4.048500000E1,1.090399981E0,1.788599968E0,1.197999939E-1
4.051500156E1,1.570699930E0,-2.489999868E-2,-1.532000005E-1
4.054500469E1,1.046299934E0,3.429999948E-2,-5.360999703E-1
4.057500625E1,1.361999989E0,5.159000158E-1,1.028999984E-1
4.060497656E1,1.422699928E0,7.373999953E-1,5.144999623E-1
4.062499844E1,1.777199984E0,1.147799969E0,1.107499957E0
4.065500000E1,2.201299906E0,1.059499979E0,1.239499927E0
4.068500312E1,1.321200013E0,-2.409999967E-1,5.299999714E-1
4.071500469E1,1.434700012E0,-1.090000011E-2,4.530999959E-1
4.074497500E1,1.026799917E0,1.057500005E0,-3.999999911E-2
4.076499688E1,7.926999927E-1,1.578599930E0,-5.004999638E-1
4.079500000E1,6.047999859E-1,1.151299953E0,7.955999970E-1
4.082500156E1,1.042299986E0,1.336599946E0,2.189800024E0
4.085500469E1,1.872299910E0,1.648699999E0,-1.145999953E-1
4.088500625E1,9.490000010E-1,1.331799984E0,-5.169999599E-1
4.091497656E1,-5.946999788E-1,1.189299941E0,-1.990000010E-1
4.093499844E1,-7.006999850E-1,1.417899966E0,-4.113000035E-1
4.096500000E1,1.128899932E0,5.417999625E-1,-1.501500010E0
4.099500313E1,1.488999963E0,-6.546999812E-1,-2.061699867E0
4.102500469E1,1.930999905E-1,-6.431999803E-1,-8.815000057E-1
4.105497500E1,-4.853999913E-1,-8.858999610E-1,-6.320999861E-1
4.107499844E1,4.001999795E-1,-5.874999762E-1,-9.739999771E-1
4.110500000E1,1.622999907E0,1.040000003E-2,-2.057999849E0
4.113500156E1,1.189299941E0,-5.909999609E-1,-1.839599967E0
4.116500469E1,-3.104999959E-1,-1.069000006E0,-1.851300001E0
4.119500625E1,-8.919000030E-1,-1.370299935E0,-1.468699932E0
4.122497656E1,-4.851000011E-1,-3.786000013E-1,-1.363199949E0
4.124500000E1,-1.506000012E-1,-5.099999718E-3,-1.881599903E0
4.127500156E1,-3.199999928E-1,1.898999959E-1,-1.741799951E0
4.130500313E1,-1.403999925E-1,-3.709000051E-1,-1.464200020E0
4.133500469E1,-2.724999785E-1,-9.621999860E-1,-1.242999911E0
4.136497500E1,-9.582999945E-1,-7.734000087E-1,-6.211000085E-1
4.138499844E1,-5.976999998E-1,-3.255999982E-1,1.632999927E-1
4.141500000E1,9.925999641E-1,8.806999922E-1,-1.809999943E-1
4.144500156E1,1.358600020E0,1.271399975E0,-8.538999557E-1
4.147500469E1,8.580999970E-1,1.222100019E0,-7.094999552E-1
4.150500625E1,-6.369999796E-2,-2.751999795E-1,-8.488999605E-1
4.153497656E1,-6.933999658E-1,-1.301999986E-1,-4.685999751E-1
4.155499844E1,-1.911000013E-1,1.101999998E0,-3.274999857E-1
4.158500156E1,1.191900015E0,2.525099993E0,-7.578999996E-1
4.161500312E1,1.103099942E0,1.813699961E0,-3.750999868E-1
4.164500469E1,7.581999898E-1,1.634199977E0,1.552399993E0
4.167497656E1,5.437999964E-1,1.852699995E0,3.236399889E0
4.169499844E1,8.080999851E-1,2.118700027E0,1.459499955E0
4.172500000E1,8.802999854E-1,1.617599964E0,1.171999946E-1
4.175500156E1,4.612999856E-1,3.470000029E-1,6.229999661E-1
4.178500469E1,8.175999522E-1,2.529000044E-1,1.726599932E0
4.181500625E1,2.280000001E-1,7.304999828E-1,7.145999670E-1
4.184497656E1,2.225999981E-1,4.375000000E-1,1.389999986E-1
4.186500000E1,9.730000049E-2,2.559999824E-1,1.114999950E-1
4.189500156E1,2.260999978E-1,1.064999998E-1,-4.508000016E-1
4.192500312E1,3.755999804E-1,2.355999947E-1,7.190999985E-1
4.195500625E1,3.394999802E-1,1.217299938E0,1.155399919E0
4.198497656E1,5.102999806E-1,8.876999617E-1,6.425999999E-1
4.200499844E1,1.171100020E0,4.645999968E-1,8.138999939E-1
4.203500000E1,2.017499924E0,4.869000018E-1,7.486000061E-1
4.206500156E1,1.780799985E0,1.173900008E0,1.746500015E0
4.209500469E1,4.652999938E-1,1.273199916E0,8.481000066E-1
4.212497500E1,4.257999957E-1,1.039299965E0,-5.708000064E-1
4.214499688E1,9.278999567E-1,4.001999795E-1,-4.205999970E-1
4.217500000E1,1.766999960E-1,2.782000005E-1,-8.631999493E-1
4.220500156E1,6.747999787E-1,1.589999907E-2,-7.511999607E-1
4.223500313E1,1.191799998E0,-3.325999975E-1,-1.926099896E0
4.226500625E1,1.196900010E0,-9.291999936E-1,-1.549600005E0
4.229497656E1,-1.122999936E-1,-1.246599913E0,-1.558899999E0
4.231499844E1,-5.350000039E-2,-8.958999515E-1,-1.972299933E0
4.234500000E1,1.052999943E-1,-9.199000001E-1,-1.998899937E0
4.237500312E1,1.862999946E-1,-2.565999925E-1,-2.015100002E0
4.240500469E1,-4.114999771E-1,-1.002799988E0,-1.325899959E0
4.243497500E1,1.428000033E-1,-5.449000001E-1,-1.594299912E0
4.245499688E1,-8.809999824E-1,-3.527999818E-1,-2.071099997E0
4.248500000E1,-1.086199999E0,-8.461999893E-1,-1.756299973E0
4.251500156E1,7.299999706E-3,-1.401299953E0,-2.381799936E0
4.254500312E1,2.256999910E-1,-7.609999925E-2,-5.918999910E-1
4.257500469E1,1.384599924E0,9.192999601E-1,-1.363099933E0
4.260497656E1,7.980999947E-1,2.527999878E-1,-1.726399899E0
4.262499844E1,3.554999828E-1,-3.287000060E-1,-3.361999989E-1
4.265500000E1,9.213999510E-1,-6.825999618E-1,-3.289999962E-1
4.268500312E1,4.580999911E-1,-3.071999848E-1,-4.215999842E-1
4.271500469E1,-1.041999981E-1,1.468099952E0,4.825999737E-1
4.274497500E1,2.918999791E-1,2.262099981E0,9.243999720E-1
4.276499688E1,5.533999801E-1,2.326799870E0,2.328999937E-1
4.279500000E1,-4.459999800E-1,1.706499934E0,-3.885999918E-1
4.282500156E1,-1.054799914E0,9.641999602E-1,5.898000002E-1
4.285500469E1,-4.113999903E-1,6.383000016E-1,7.556999922E-1
4.288500625E1,2.422999889E-1,1.168900013E0,2.228000015E-1
4.291497656E1,-2.404999882E-1,2.014699936E0,2.568999827E-1
4.293499844E1,-6.229999661E-2,2.331199884E0,9.756999612E-1
4.296500000E1,5.379999802E-2,1.078199983E0,1.472800016E0
4.299500313E1,1.768999994E-1,2.219999880E-1,1.329100013E0
4.302500469E1,1.058699965E0,8.350999951E-1,1.606999993E0
4.305497500E1,1.419399977E0,1.203099966E0,1.339599967E0
4.307499688E1,1.179600000E0,6.117999554E-1,9.475999475E-1
4.310500000E1,9.855999947E-1,1.730000041E-2,4.095999897E-1
4.313500156E1,8.202999830E-1,5.899999756E-3,-1.349999942E-2
4.316500313E1,-3.579999804E-1,7.899999619E-2,4.329999909E-2
4.319500625E1,-8.179000020E-1,7.469999790E-1,9.789999723E-1
4.322497656E1,1.433999985E-1,1.625100017E0,6.750000119E-1
4.324499844E1,3.804999888E-1,1.579599977E0,7.698999643E-1
4.327500000E1,-5.699999928E-1,1.952199936E0,4.745000005E-1
4.330500313E1,-8.200999498E-1,2.241099834E0,5.735999942E-1
4.333500469E1,4.095999897E-1,7.882999778E-1,1.489000022E-1
4.336497500E1,3.055999875E-1,-3.461000025E-1,-1.023999974E-1
4.338499688E1,-3.120999932E-1,-7.968999743E-1,2.269999981E-1
4.341500000E1,-1.165999994E-1,-8.073999882E-1,-9.596999884E-1
4.344500156E1,1.188999936E-1,-6.189000010E-1,-2.068599939E0
4.347500469E1,-6.688999534E-1,-9.433999658E-1,-1.181699991E0
4.350500625E1,-4.249999821E-1,-1.481400013E0,-2.211999893E0
4.353497656E1,4.279999807E-2,-1.205699921E0,-1.654199958E0
4.355499844E1,-4.645999968E-1,-7.240999937E-1,-2.008499861E0
4.358500000E1,-8.756999969E-1,-1.333999932E-1,-1.198199987E0
4.361500312E1,-6.821999550E-1,-3.357999921E-1,-2.962999940E-1
4.364500469E1,-1.636999995E-1,6.236999631E-1,-1.112299919E0
4.367497500E1,-1.101999953E-1,-2.488999963E-1,-1.519299984E0
4.369499688E1,5.056999922E-1,-9.686999917E-1,-2.353399992E0
4.372500000E1,-9.368999600E-1,-2.741499901E0,-1.628499985E0
4.375500156E1,-3.079999983E-1,-1.488099933E0,-1.473099947E0
4.378500469E1,2.019999921E-2,-6.542999744E-1,-1.476699948E0
4.381500625E1,5.859999731E-2,-2.592999935E-1,-1.064100027E0
4.384497656E1,-9.139999747E-2,2.541999817E-1,-6.811999679E-1
4.386499844E1,-8.639999479E-2,1.359399915E0,-1.080600023E0
4.389500000E1,-2.567999959E-1,1.314099908E0,-7.434999943E-1
4.392500312E1,-6.600999832E-1,4.854999781E-1,2.789999917E-2
4.395500469E1,-2.487999946E-1,7.839999795E-1,-2.313999981E-1
4.398497500E1,2.599999905E-1,1.039099932E0,-2.719999850E-2
4.400499844E1,-1.556999981E-1,1.504499912E0,5.979999900E-1
4.403500000E1,8.619999886E-2,1.208699942E0,8.258000016E-1
4.406500156E1,4.343999922E-1,2.069999874E-1,7.221999764E-1
4.409500313E1,9.766999483E-1,1.218599916E0,9.154999852E-1
4.412500625E1,5.576999784E-1,2.768399954E0,1.845699906E0
4.415497656E1,-1.589999907E-2,2.911700010E0,1.152799964E0
4.417499844E1,1.799999969E-3,1.302299976E0,8.920999765E-1
4.420500156E1,-6.714000106E-1,1.547999978E-1,-1.876000017E-1
4.423500313E1,-1.084599972E0,-3.458999991E-1,2.795000076E-1
4.426500469E1,-1.442999989E-1,1.076999977E-1,6.513000131E-1
4.429497500E1,9.768999815E-1,7.532999516E-1,5.426999927E-1
4.431499844E1,1.226300001E0,1.078499913E0,6.495999694E-1
4.434500000E1,1.060299993E0,6.559999585E-1,9.468999505E-1
4.437500312E1,1.102299929E0,7.001999617E-1,1.279299974E0
4.440500312E1,1.862999946E-1,8.130999804E-1,2.509000003E-1
4.443500625E1,4.509999976E-2,5.004999638E-1,-3.299999982E-3
4.446497656E1,-2.149000019E-1,6.987000108E-1,1.623999953E0
4.448499844E1,-1.133099914E0,1.602299929E0,1.032299995E0
4.451500156E1,1.750000007E-2,1.432999969E0,4.276999831E-1
4.454500312E1,2.545999885E-1,8.701999784E-1,-4.167999923E-1
4.457500469E1,-3.830000013E-2,-1.488000005E-1,7.800000161E-2
4.460497500E1,-7.479999959E-2,-5.884000063E-1,1.030000020E-2
4.462499844E1,4.659999907E-2,-2.357999980E-1,8.259999752E-2
4.465500000E1,4.506999850E-1,7.125999928E-1,-1.134999990E0
4.468500156E1,1.850999892E-1,3.731999993E-1,-8.518999815E-1
4.471500469E1,1.386999935E-1,-1.241299987E0,-6.500999928E-1
4.474500625E1,4.265999794E-1,-1.275300026E0,-9.486999512E-1
4.477497656E1,8.362999558E-1,-1.281799912E0,-1.312600017E0
4.479499844E1,8.222999573E-1,2.229999937E-2,-1.731999993E0
4.482500156E1,8.169999719E-2,-5.116999745E-1,-1.849699974E0
4.485500312E1,-5.480000004E-2,-2.944000065E-1,-1.775499940E0
4.488500469E1,-4.756999910E-1,-1.365000010E-1,-1.308300018E0
4.491497656E1,2.888000011E-1,-1.093500018E0,-2.084399939E0
4.493499844E1,-2.888000011E-1,-1.432199955E0,-2.309499979E0
4.496500000E1,-3.159999847E-1,-9.795999527E-1,-3.149499893E0
4.499500156E1,-2.018999904E-1,-1.397199988E0,-2.580499887E0
4.502500469E1,4.589999840E-2,4.432999790E-1,1.489899993E0
4.505497500E1,1.820199966E0,9.483999610E-1,-7.603999972E-1
4.507499688E1,1.449499965E0,1.276000023E0,-2.157599926E0
4.510500000E1,2.841999829E-1,1.652999997E0,1.319800019E0
4.513500156E1,8.116999865E-1,1.574999988E-1,1.955999881E-1
4.516500313E1,-8.774999976E-1,-1.041199923E0,-8.594999909E-1
4.519500469E1,-1.724499941E0,-6.582999825E-1,-2.185999900E-1
4.522497656E1,-5.715000033E-1,1.348399997E0,1.200000010E-2
4.524499844E1,6.729999781E-1,2.705699921E0,8.329999447E-2
4.527500000E1,8.495000005E-1,2.731499910E0,-4.357999861E-1
4.530500313E1,-6.410999894E-1,7.357999682E-1,-8.219999820E-2
4.532503281E1,-7.566999793E-1,2.104000002E-1,1.247099996E0
4.535499531E1,3.402999938E-1,1.298200011E0,2.401700020E0
4.538499688E1,9.083999991E-1,2.405900002E0,2.136800051E0
4.541499844E1,7.050999999E-1,1.702099919E0,8.802999854E-1
4.544500156E1,1.202499986E0,1.334900022E0,6.553999782E-1
4.547500312E1,1.071099997E0,7.480999827E-1,9.039999843E-1
4.550500469E1,-3.488000035E-1,9.579999745E-2,4.034000039E-1
4.553497656E1,-6.068999767E-1,1.876000017E-1,-7.490999699E-1
4.555499844E1,-9.800000116E-3,6.340000033E-2,-5.773000121E-1
4.558500000E1,5.403999686E-1,3.651999831E-1,2.028999925E-1
4.561500312E1,7.739999890E-1,1.209900022E0,9.287999868E-1
4.564500469E1,6.183999777E-1,9.769999981E-1,1.436399937E0
4.567497500E1,7.286999822E-1,2.505999804E-1,7.511999607E-1
4.569499688E1,8.192999959E-1,7.679999620E-2,9.098999500E-1
4.572500000E1,1.069100022E0,4.531999826E-1,1.333699942E0
4.575500156E1,7.591999769E-1,1.501299977E0,4.774999917E-1
4.578500312E1,6.197999716E-1,1.746999979E0,1.278999895E-1
4.581500625E1,1.988999993E-1,3.909999877E-2,-7.382999659E-1
4.584497656E1,-6.480000168E-2,-1.079900026E0,-9.473999739E-1
4.586499844E1,-5.631999969E-1,-9.802999496E-1,-7.091999650E-1
4.589500000E1,-5.026000142E-1,5.974999666E-1,2.659999952E-2
4.592500312E1,2.861999869E-1,1.471000016E-1,-2.513999939E-1
4.595500469E1,3.664000034E-1,1.009999961E-2,-5.295999646E-1
4.598497500E1,5.306000113E-1,-2.806999981E-1,-2.897999883E-1
4.600499688E1,9.149999619E-1,-3.979999945E-2,-7.633999586E-1
4.603500000E1,-1.193999946E-1,-3.808999956E-1,-2.340299845E0
4.606500156E1,-1.411299944E0,-5.381999612E-1,-2.941099882E0
4.609500313E1,-6.807000041E-1,-1.577199936E0,-2.992399931E0
4.612500469E1,-5.586000085E-1,-1.344799995E0,-2.640399933E0
4.615497656E1,-3.127999902E-1,-8.641999960E-1,-2.359499931E0
4.617499844E1,-2.111999989E-1,-1.034099936E0,-1.557699919E0
4.620500000E1,5.889999866E-1,-1.185599923E0,-1.195400000E0
4.623500313E1,7.831999660E-1,-4.400999844E-1,-7.597999573E-1
4.626500469E1,6.851999760E-1,3.632999957E-1,-8.999999613E-3
4.629497500E1,7.486999631E-1,1.017199993E0,-6.974999905E-1
4.631499688E1,8.889999986E-1,3.260999918E-1,3.134999871E-1
4.634500000E1,-3.107999861E-1,3.362999856E-1,-1.513899922E0
4.637500156E1,-5.335000157E-1,1.065999940E-1,-7.585999966E-1
4.640500312E1,-9.580999613E-1,8.849999905E-1,-9.709999710E-2
4.643500625E1,6.009999663E-2,2.353999913E-1,-8.254999518E-1
4.646497656E1,6.696999669E-1,-2.149999887E-1,-3.830000013E-2
4.648499844E1,8.824999928E-1,1.604999900E-1,7.299999893E-2
4.651500156E1,9.088000059E-1,1.935999990E0,1.085999981E-1
4.654500312E1,-6.020999551E-1,3.473699808E0,1.667499900E0
4.657500469E1,6.442999840E-1,2.480599880E0,1.245399952E0
4.660497500E1,8.761000037E-1,3.421999812E-1,2.185999900E-1
4.662499844E1,4.091999829E-1,-1.604000032E-1,6.229999661E-2
4.665500000E1,-3.651999831E-1,-2.644999921E-1,1.056499958E0
4.668500312E1,-1.823000014E-1,9.538999796E-1,1.565899968E0
4.671500469E1,8.222000003E-1,2.023799896E0,1.145699978E0
4.674500625E1,1.193499923E0,7.716000080E-1,6.671999693E-1
4.677497656E1,4.247999787E-1,2.606000006E-1,1.008499980E0
4.679499844E1,1.781999916E-1,6.068999767E-1,2.918999791E-1
4.682500156E1,2.691999972E-1,1.063899994E0,3.689000010E-1
4.685500312E1,3.240000084E-2,7.150999904E-1,1.724999994E-1
4.688500469E1,-4.280999899E-1,4.653999805E-1,-2.169999927E-1
4.691497500E1,1.352399945E0,7.368999720E-1,7.076999545E-1
4.693499844E1,1.118199944E0,6.539999843E-1,8.996999860E-1
4.696500000E1,1.577999890E-1,2.714000046E-1,1.115999967E-1
4.699500156E1,5.151000023E-1,2.484999895E-1,1.837399960E0
4.702500469E1,7.725999951E-1,5.101999640E-1,8.646999598E-1
4.705500625E1,4.603999853E-1,7.673999667E-1,7.436999679E-1
4.708497656E1,3.638999760E-1,1.359699965E0,6.169999838E-1
4.710499844E1,2.888000011E-1,1.377699971E0,-4.030000046E-2
4.713500156E1,-9.800000116E-3,1.174799919E0,-1.101099968E0
4.716500313E1,-2.187999934E-1,5.982999802E-1,-1.395499945E0
4.719500469E1,-6.107000113E-1,-1.700199962E0,-1.474999905E0
4.722497656E1,-1.492999941E-1,-8.361999989E-1,-7.911999822E-1
4.724499844E1,1.240999997E-1,2.030999959E-1,-9.029999971E-1
4.727500000E1,5.731999874E-1,-1.021600008E0,-2.236500025E0
4.730500156E1,1.253999919E-1,-2.327499866E0,-1.721499920E0
4.732501719E1,1.932999939E-1,-1.852099895E0,-1.661099911E0
4.735499531E1,5.164999962E-1,-3.879999816E-1,-1.489099979E0
4.738499688E1,3.560999930E-1,2.752999961E-1,-2.231299877E0
4.741499844E1,-5.600000024E-1,-6.466999650E-1,-1.881099939E0
4.744500156E1,-6.139000058E-1,-1.546700001E0,-1.767699957E0
4.747500312E1,1.439999975E-2,-1.298299909E0,-1.867899895E0
4.750500469E1,4.194999933E-1,-8.172000051E-1,-8.852999806E-1
4.753497656E1,5.090000033E-1,-2.310999930E-1,-1.243999973E-1
4.755499844E1,1.622999907E-1,5.521999598E-1,-3.321000040E-1
4.758500000E1,3.822999895E-1,1.808200002E0,-4.321999848E-1
4.761500156E1,-1.622999907E-1,9.669999480E-1,-1.026199937E0
4.764500469E1,3.049999848E-2,-8.865000010E-1,-8.211999536E-1
4.767500625E1,-7.569999993E-2,-8.903999925E-1,-7.795999646E-1
4.770497656E1,3.965999782E-1,7.867999673E-1,-3.617999852E-1
4.772499844E1,2.386999875E-1,1.465099931E0,-1.564999968E-1
4.775500156E1,-1.960000023E-2,1.353199959E0,5.949999690E-1
4.778500312E1,4.949999973E-2,1.279500008E0,7.811999917E-1
4.781500625E1,-3.830000013E-2,2.352699995E0,9.141999483E-1
4.784497656E1,-4.499999806E-3,2.540799856E0,1.281899929E0
4.786499844E1,4.549999833E-1,1.999300003E0,1.850199938E0
4.789500000E1,1.257300019E0,1.330000013E-1,1.179399967E0
4.792500156E1,1.811699986E0,-2.249999903E-2,5.123999715E-1
4.795500469E1,2.250099897E0,1.158599973E0,6.026999950E-1
4.798497500E1,5.119000077E-1,1.388799906E0,3.460000083E-2
4.800499688E1,-8.094999790E-1,5.798999667E-1,-2.579999901E-2
4.803499844E1,-1.313300014E0,-1.828999966E-1,-3.916999996E-1
4.806500156E1,3.457999825E-1,-4.479999840E-2,3.191999793E-1
4.809500313E1,1.372699976E0,5.080000162E-1,3.617999852E-1
4.812500469E1,9.031999707E-1,1.249300003E0,8.782999516E-1
4.815497656E1,1.350600004E0,1.282899976E0,1.776099920E0
4.817499844E1,1.860799909E0,7.361999750E-1,1.862699986E0
4.820500000E1,1.002399921E0,2.527000010E-1,2.787999809E-1
4.823500156E1,-1.361999959E-1,5.346999764E-1,5.350999832E-1
4.826500469E1,2.958999872E-1,8.093999624E-1,3.084999919E-1
4.829497500E1,1.485999972E-1,8.500999808E-1,1.719999872E-2
4.831499688E1,1.008999944E-1,5.748000145E-1,-3.999999911E-2
4.834500000E1,-5.419999734E-2,3.209999800E-1,-4.139999747E-1
4.837500156E1,-2.363999933E-1,1.232999936E-1,3.750999868E-1
4.840500312E1,3.519999981E-1,1.737999916E-1,-4.987999797E-1
4.843500469E1,8.497999907E-1,7.268999815E-1,-7.803999782E-1
4.846497656E1,-6.499999668E-3,-2.090999931E-1,-5.824999809E-1
4.848499844E1,-1.508999914E-1,-1.514499903E0,-9.842000008E-1
4.851500156E1,-6.292999983E-1,-5.780000091E-1,-1.762699962E0
4.854500156E1,4.210000038E-1,-1.199999973E-1,-1.582000017E0
4.857500469E1,-7.427999973E-1,-3.810000047E-2,-2.160799980E0
4.860497500E1,3.093000054E-1,-1.225999951E0,-2.340600014E0
4.862499688E1,-5.029999837E-2,-1.979299903E0,-2.274899960E0
4.865500000E1,2.506999969E-1,-7.053999901E-1,-2.014400005E0
4.868500156E1,3.058999777E-1,-9.775999784E-1,-1.817600012E0
4.871500312E1,-1.653999984E-1,-5.509999990E-1,-6.759999990E-1
4.874500625E1,-4.662999809E-1,-5.271999836E-1,-4.854999781E-1
4.877497656E1,-5.231999755E-1,4.629999772E-2,-9.060999751E-1
4.879499844E1,-1.322199941E0,5.365999937E-1,-1.066299915E0
4.882502031E1,-9.447999597E-1,3.082000017E-1,-1.651899934E0
4.885500312E1,-9.707999825E-1,-2.166999876E-1,-6.635999680E-1
4.888500469E1,-2.149999887E-2,-7.780999541E-1,-1.185299993E0
4.891497500E1,2.838000059E-1,-1.174999997E-1,-9.923999906E-1
4.893499688E1,6.923999786E-1,1.208500028E0,-4.889999703E-2
4.896500000E1,1.265699983E0,2.157599926E0,8.729999512E-2
4.899500156E1,1.326999962E-1,1.889899969E0,1.615999937E-1
4.902500469E1,-9.352999926E-1,1.432799935E0,1.543599963E0
4.905500469E1,-1.264999956E-1,1.094599962E0,1.442999959E0
4.908497656E1,5.891000032E-1,9.364999533E-1,6.263999939E-1
4.910499844E1,2.439999878E-1,1.084399939E0,2.748000026E-1
4.913500000E1,-6.825000048E-1,1.808899999E0,5.723999739E-1
4.916500313E1,-3.814999759E-1,1.524399996E0,7.164999843E-1
4.919500469E1,-4.390999973E-1,3.599999938E-3,-3.188000023E-1
4.922497656E1,-3.218999803E-1,-8.999999613E-2,7.599999662E-3
4.924499844E1,-9.250000119E-2,7.028999925E-1,1.210500002E0
4.927500000E1,1.352100015E0,1.489199996E0,2.023699999E0
4.930500156E1,1.960899949E0,1.762899995E0,1.286199927E0
4.933500312E1,1.150799990E0,3.247999847E-1,1.119999960E-2
4.936500625E1,9.279999882E-2,-9.768999815E-1,8.410000056E-2
4.939497656E1,-1.877999902E-1,4.917999804E-1,6.856999993E-1
4.941499844E1,-4.100999832E-1,1.316599965E0,1.137799978E0
4.944500000E1,-5.223999619E-1,1.338500023E0,1.035300016E0
4.947500312E1,2.639999986E-1,5.141000152E-1,2.574999928E-1
4.950500469E1,4.637999833E-1,-1.441999972E-1,4.912999868E-1
4.953497500E1,3.590000048E-2,3.028999865E-1,5.436999798E-1
4.955499844E1,9.429999441E-2,3.696999848E-1,9.639999866E-1
4.958500000E1,2.818000019E-1,7.117999792E-1,-2.876999974E-1
4.961500156E1,6.439999491E-2,1.022799969E0,3.597999811E-1
4.964500312E1,-3.940999806E-1,9.156999588E-1,2.048999965E-1
4.967500625E1,-3.413999975E-1,1.928000003E-1,-1.309299946E0
4.970497656E1,-1.113299966E0,-3.340999782E-1,-1.073199987E0
4.972499844E1,-1.539600015E0,-8.411999941E-1,-8.471999764E-1
4.975500156E1,-6.656000018E-1,-1.447199941E0,-1.518700004E0
4.978500312E1,-2.477999926E-1,-7.173999548E-1,-2.219300032E0
4.981500469E1,7.538999915E-1,-5.126000047E-1,-2.335399866E0
4.984497656E1,6.784999967E-1,-5.198999643E-1,-2.315799952E0
4.986499844E1,-5.790000036E-2,-5.734999776E-1,-1.749099970E0
4.989500000E1,-6.850000024E-1,-6.103000045E-1,-1.479599953E0
4.992500156E1,2.516999841E-1,-1.061800003E0,-1.188099980E0
4.995500469E1,1.023999974E-1,-1.689999938E0,-1.412799954E0
4.998500625E1,-1.018299937E0,-2.856999934E-1,-1.497999907E0
5.001497656E1,-1.100199938E0,7.829999924E-2,-8.665999770E-1
5.003499844E1,-8.118999600E-1,-4.189999774E-2,-5.963999629E-1
5.006500156E1,-2.064999938E-1,-2.777999938E-1,-1.131600022E0
5.009500313E1,-3.458999991E-1,1.825999916E-1,-3.222000003E-1
5.012500469E1,-1.246999949E-1,4.133999944E-1,-5.354999900E-1
5.015497656E1,-4.214999974E-1,4.959999919E-1,-8.987999558E-1
5.017499844E1,-7.556999922E-1,5.135999918E-1,-1.013000011E-1
5.020500000E1,-4.933999777E-1,1.265499949E0,1.900999993E-1
5.023500156E1,4.070999920E-1,1.950199962E0,2.585999966E-1
5.026500312E1,4.907999933E-1,1.559700012E0,3.964000046E-1
5.029500625E1,1.885000020E-1,7.091999650E-1,1.198099971E0
5.032501250E1,-6.324999928E-1,1.021999955E0,8.260999918E-1
5.035497812E1,-1.237499952E0,1.768799901E0,1.171599984E0
5.037500156E1,-6.799999624E-2,2.256099939E0,1.638999939E0
5.040500312E1,1.477399945E0,2.661499977E0,1.323599935E0
5.043500469E1,1.404999971E0,6.728999615E-1,1.939999871E-2
5.046497656E1,8.509999514E-2,-6.075999737E-1,-4.889999703E-2
5.048499844E1,1.504999995E-1,-4.074999988E-1,6.626999974E-1
5.051500000E1,1.001299977E0,9.018999934E-1,2.070199966E0
5.054500156E1,1.228199959E0,1.534600019E0,9.228000045E-1
5.057500469E1,5.169000030E-1,2.186999917E-1,-8.399999887E-2
5.060500625E1,-8.889999986E-2,-5.839999765E-2,-4.783999920E-1
5.063497656E1,-4.429999739E-2,9.839999676E-1,8.486999869E-1
5.065499844E1,-3.920000046E-2,1.683899999E0,1.445500016E0
5.068500156E1,1.538999975E-1,1.323799968E0,4.800999761E-1
5.071500312E1,1.403999925E-1,5.440999866E-1,-6.879999489E-2
5.074500469E1,-1.119999960E-2,3.213999867E-1,-5.733000040E-1
5.077497656E1,-1.070000008E-1,-6.939999759E-2,3.371999860E-1
5.079499844E1,-1.806999892E-1,-2.590000033E-1,-4.109999910E-2
5.082500000E1,2.001999915E-1,-8.899999410E-2,5.511000156E-1
5.085500156E1,8.901999593E-1,7.581999898E-1,4.219999909E-1
5.088500469E1,8.416999578E-1,2.125099897E0,3.648999929E-1
5.091497500E1,1.168599963E0,1.342499971E0,-3.267999887E-1
5.093499688E1,8.614999652E-1,8.509999514E-1,-7.394999862E-1
5.096500000E1,-3.057000041E-1,-2.272000015E-1,-1.330899954E0
5.099500156E1,-1.167500019E0,-2.252500057E0,-9.472999573E-1
5.102500313E1,-3.989999741E-2,-1.830999970E0,-1.430999994E0
5.105500469E1,1.175199986E0,-1.598699927E0,-2.283099890E0
5.108497656E1,6.882999539E-1,-2.020699978E0,-2.919099808E0
5.110499844E1,5.284000039E-1,-1.235899925E0,-2.165999889E0
5.113500000E1,9.359999746E-2,-2.092999965E-1,-2.110800028E0
5.116500156E1,-2.899999963E-3,-6.331999898E-1,-1.564799905E0
5.119500469E1,3.619999811E-2,-3.876999915E-1,-1.343899965E0
5.122497500E1,1.314999908E-1,-2.875999808E-1,-1.007599950E0
5.124499688E1,4.319999740E-2,-5.485999584E-1,-8.380999565E-1
5.127500000E1,5.706999898E-1,-5.547999740E-1,-8.950999975E-1
5.130500156E1,8.908999562E-1,-2.364999950E-1,-1.142099977E0
5.132500625E1,6.329999566E-1,5.059999973E-2,-9.407999516E-1
5.135499375E1,7.044000030E-1,3.321999907E-1,-1.043900013E0
5.138499688E1,2.612999976E-1,8.655999899E-1,-5.065000057E-1
5.141499844E1,-1.491999924E-1,1.364699960E0,8.399999887E-2
5.144500000E1,1.840000041E-2,1.681399941E0,8.885999918E-1
5.147500312E1,6.873999834E-1,1.807699919E0,-1.300999969E-1
5.150500469E1,5.149999857E-1,1.275200009E0,-3.251000047E-1
5.153497500E1,-3.526999950E-1,6.883999705E-1,3.409999982E-2
5.155499688E1,-5.188999772E-1,5.020999908E-1,1.902000010E-1
5.158500000E1,1.829999983E-1,1.203099966E0,6.712999940E-1
5.161500156E1,6.272999644E-1,2.080100060E0,1.190500021E0
5.164500312E1,1.255100012E0,2.280599833E0,1.891999960E0
5.167500625E1,1.589900017E0,1.853899956E0,1.806299925E0
5.170497656E1,8.351999521E-1,4.974999726E-1,1.275200009E0
5.172499844E1,6.714999676E-1,2.090999931E-1,9.513999820E-1
5.175500000E1,5.629999638E-1,6.301999688E-1,7.874999642E-1
5.178500312E1,2.619000077E-1,6.521999836E-1,4.050999880E-1
5.181500469E1,-1.279999912E-1,5.672999620E-1,-1.639999896E-1
5.184497500E1,-1.736999899E-1,3.129000068E-1,-1.187999994E-1
5.186499688E1,-2.412000000E-1,4.440999925E-1,-4.127999842E-1
5.189500000E1,1.982999891E-1,8.921999931E-1,-1.065999940E-1
5.192500156E1,3.992999792E-1,1.202700019E0,1.310299993E0
5.195500313E1,5.939999968E-2,1.121899962E0,1.138800025E0
5.198500625E1,1.111999974E-1,1.010399938E0,5.674999952E-1
5.201497656E1,5.539000034E-1,8.956999779E-1,3.515999913E-1
5.203499844E1,5.242999792E-1,9.793999791E-1,-1.435000002E-1
5.206500000E1,1.076900005E0,4.120999873E-1,-6.053000093E-1
5.209500313E1,9.814999700E-1,5.399999674E-3,-6.856999993E-1
5.212500469E1,3.423999846E-1,7.979999483E-2,-8.532999754E-1
5.215497500E1,-3.086999953E-1,-1.683000028E-1,-6.750000119E-1
5.217499844E1,-1.322499990E0,-4.210999906E-1,-7.955999970E-1
5.220500000E1,-1.112200022E0,-8.594999909E-1,-5.008000135E-1
5.223500156E1,-2.245000005E-1,-1.146899939E0,-1.486899972E0
5.226500312E1,1.126199961E0,-1.268999934E0,-2.458799839E0
5.229500625E1,7.109000087E-1,-7.754999995E-1,-1.850199938E0
5.232499844E1,1.611000001E-1,-3.436999917E-1,-1.498499990E0
5.234499844E1,-4.457999766E-1,-1.087999940E-1,-1.553299904E0
5.237500156E1,-6.549999714E-1,-2.254000008E-1,-1.353399992E0
5.240500312E1,-1.885999888E-1,-7.191999555E-1,-1.374099970E0
5.243500469E1,-9.268999696E-1,-1.662400007E0,-1.955899954E0
5.246497500E1,-6.198999882E-1,-2.124399900E0,-3.399899960E0
5.248499844E1,-4.046999812E-1,-2.140300035E0,-3.590099812E0
5.251500000E1,-5.363000035E-1,-1.679600000E0,-4.923999906E-1
5.254500156E1,1.871799946E0,2.780299902E0,7.134000063E-1
5.257500312E1,1.849399924E0,3.811699867E0,-1.412500024E0
5.260500625E1,1.060299993E0,2.106899977E0,1.129099965E0
5.263497656E1,4.095999897E-1,-9.583999515E-1,1.292699933E0
5.265499844E1,-5.564999580E-1,-1.668299913E0,1.333999932E-1
5.268500156E1,-1.787299991E0,-9.926999807E-1,-1.008700013E0
5.271500312E1,-1.002799988E0,1.464999914E0,-1.415599942E0
5.274500469E1,1.360899925E0,2.869599819E0,-7.684999704E-1
5.277497656E1,1.031099916E0,2.232100010E0,8.963999748E-1
5.279499844E1,5.985000134E-1,1.480899930E0,1.204900026E0
5.282500625E1,2.856000066E-1,1.028599977E0,1.817600012E0
5.285500156E1,-2.988999784E-1,1.774299979E0,9.742999673E-1
5.288500313E1,1.700999886E-1,1.000699997E0,9.220999479E-1
5.291500625E1,-1.974999905E-1,2.689999901E-2,3.877999783E-1
5.294497656E1,-3.118999898E-1,8.999999613E-2,4.249999821E-1
5.296499844E1,-6.639999896E-2,6.409999728E-1,2.076999992E-1
5.299500156E1,2.744999826E-1,7.491999865E-1,3.014999926E-1
5.302500313E1,6.883999705E-1,1.064999938E0,4.981999993E-1
5.305500469E1,4.491999745E-1,1.153399944E0,6.796000004E-1
5.308497500E1,5.350999832E-1,3.409000039E-1,5.437999964E-1
5.310499844E1,-9.599999525E-3,1.315999925E-1,-6.229999661E-2
5.313500000E1,-3.434000015E-1,5.241999626E-1,-1.581999958E-1
5.316500156E1,5.040000007E-2,9.056999683E-1,9.699999690E-1
5.319500469E1,5.924000144E-1,1.376699924E0,9.118999839E-1
5.322500625E1,7.669999599E-1,1.293799996E0,1.557699919E0
5.325497656E1,5.785999894E-1,8.197000027E-1,3.009999990E-1
5.327500000E1,4.030000046E-2,7.554000020E-1,7.269999981E-1
5.330500156E1,-2.009999901E-1,8.391000032E-1,1.004799962E0
5.332502812E1,2.346999943E-1,2.664999962E-1,5.548999906E-1
5.335499375E1,-4.300999939E-1,-3.390000015E-2,3.811999857E-1
5.338499531E1,-4.542999864E-1,-1.074000001E-1,-4.842000008E-1
5.341499844E1,-9.147999883E-1,-3.772999942E-1,-7.012999654E-1
5.344500000E1,-6.408999562E-1,-7.587999701E-1,-1.281000018E0
5.347500312E1,-8.892999887E-1,-1.423399925E0,-1.290099978E0
5.350500312E1,7.379999757E-2,-1.613499999E0,-2.344799995E0
5.353500625E1,7.437999845E-1,-1.533800006E0,-2.167899847E0
5.356497656E1,9.016000032E-1,-2.270999998E-1,-2.552199841E0
5.358500000E1,2.723999918E-1,-3.220999837E-1,-2.238399982E0
5.361500156E1,-4.725999832E-1,-1.072700024E0,-1.650999904E0
5.364500312E1,-7.339999825E-2,-1.247699976E0,-1.718599916E0
5.367500469E1,-1.617999971E-1,-8.937000036E-1,-1.565099955E0
5.370497656E1,2.048999965E-1,-1.831000000E-1,-1.145200014E0
5.372499844E1,7.486999631E-1,1.379999984E-2,-1.153900027E0
5.375500000E1,4.510999918E-1,-1.695999950E-1,-6.247999668E-1
5.378500156E1,4.366999865E-1,4.971999824E-1,-3.106999993E-1
5.381500469E1,1.889999956E-1,1.160899997E0,-4.508000016E-1
5.384497500E1,-3.995999992E-1,7.443999648E-1,-2.698000073E-1
5.386499688E1,-3.574999869E-1,4.399999976E-1,-1.004500031E0
5.389499844E1,-4.535000026E-1,2.525999844E-1,-7.655999660E-1
5.392500156E1,6.719999760E-2,2.408999950E-1,-4.928999841E-1
5.395500313E1,6.172999740E-1,4.386000037E-1,-6.723999977E-1
5.398500469E1,6.811999679E-1,1.665399909E0,-6.870000064E-2
5.401497656E1,6.401000023E-1,2.513799906E0,3.155999780E-1
5.403499844E1,7.572000027E-1,2.078199863E0,-5.020000041E-2
5.406500000E1,-1.115999967E-1,1.585199952E0,3.894999921E-1
5.409500313E1,1.682000011E-1,1.791099906E0,1.554199934E0
5.412500469E1,5.537999868E-1,1.695299983E0,1.672799945E0
5.415497500E1,1.231499910E0,1.687799931E0,1.529299974E0
5.417499688E1,1.695699930E0,1.288699985E0,8.467999697E-1
5.420500000E1,1.133099914E0,8.634999990E-1,2.629999816E-1
5.423500156E1,3.531000018E-1,-1.247999966E-1,-2.078000009E-1
5.426500313E1,-1.195999980E-1,-6.187999845E-1,1.362499952E0
5.429500625E1,1.107999921E0,5.605999827E-1,1.769499898E0
5.432497656E1,1.100600004E0,1.227599978E0,3.152999878E-1
5.434499844E1,5.606999993E-1,1.042400002E0,-7.459999621E-2
5.437500000E1,6.207999587E-1,1.347899914E0,5.192999840E-1
5.440500156E1,1.397699952E0,1.079800010E0,5.410000086E-1
5.443500469E1,1.577000022E-1,2.104199886E0,5.029000044E-1
5.446497500E1,-4.696999788E-1,3.991499901E0,2.347800016E0
5.448499688E1,9.340999722E-1,5.241799831E0,1.002200007E0
5.451500000E1,1.181100011E0,3.995799780E0,4.434999824E-1
5.454500156E1,-6.085000038E-1,1.240999937E0,3.438999951E-1
5.457500312E1,-7.721999884E-1,-1.130499959E0,-1.884099960E0
5.460500625E1,-9.470000118E-2,-1.783800006E0,-2.025899887E0
5.463497656E1,3.170000017E-2,-1.856399894E0,-3.388999939E0
5.465499844E1,7.349999547E-1,-2.639400005E0,-2.034199953E0
5.468500000E1,5.034999847E-1,-2.155400038E0,-4.108200073E0
5.471500312E1,-2.268199921E0,-2.960599899E0,2.876099825E0
5.474500469E1,1.320400000E0,-4.855999947E0,2.177299976E0
5.477497500E1,1.849999905E0,5.143799782E0,2.775699854E0
5.479499688E1,1.537999988E0,7.478699684E0,-1.484200001E0
5.482502031E1,-5.782999992E-1,7.861999869E-1,-2.810400009E0
5.485500156E1,1.832999885E-1,7.090000063E-2,-3.532299995E0
5.488500313E1,-1.213299990E0,-5.314999819E-1,-3.620999813E0
5.491500625E1,-6.554999948E-1,-2.052999973E0,-3.250000000E0
5.494497656E1,1.691100001E0,-1.502299905E0,-4.242099762E0
5.496499844E1,-8.343999982E-1,-1.644599915E0,-2.247599840E0
5.499500000E1,4.008999765E-1,-1.229399920E0,-6.837999821E-1
5.502500313E1,2.824999988E-1,7.195999622E-1,-1.622299910E0
5.505500469E1,5.055999756E-1,1.231599927E0,-3.019799948E0
5.508497500E1,-1.057999954E-1,-1.215499997E0,-1.079599977E0
5.510499688E1,-5.519999936E-2,-2.527799845E0,-1.668399930E0
5.513500000E1,1.246999949E-1,-2.117300034E0,-1.366500020E0
5.516500156E1,-7.499999832E-3,1.049999986E-2,3.003000021E-1
5.519500469E1,5.522999763E-1,2.173599958E0,1.187399983E0
5.522500625E1,1.041800022E0,3.630100012E0,5.281999707E-1
5.525497656E1,1.213899970E0,3.438299894E0,8.292999864E-1
5.527499844E1,2.633999884E-1,1.835399985E0,7.561999559E-1
5.530500156E1,-8.622999787E-1,3.599999845E-2,5.309999734E-2
5.533500312E1,-1.652599931E0,8.682000041E-1,-1.321000010E-1
5.536500469E1,-3.577999771E-1,2.058899879E0,-5.382999778E-1
5.539497500E1,-4.990999997E-1,2.140499830E0,8.079999685E-2
5.541499688E1,-8.995999694E-1,1.441399932E0,1.983999968E0
5.544500000E1,-2.118999958E-1,3.337999880E-1,1.587799907E0
5.547500156E1,1.652999997E0,8.075000048E-1,3.448999822E-1
5.550500469E1,9.558999538E-1,1.188300014E0,1.462499976E0
5.553500625E1,9.984999895E-1,1.818499923E0,2.859999895E0
5.556497656E1,7.752000093E-1,1.089900017E0,-3.570000082E-2
5.558499844E1,-1.130999997E-1,-1.134999990E-1,-1.166299939E0
5.561500156E1,-6.360999942E-1,-1.949399948E0,-2.157799959E0
5.564500312E1,9.233999848E-1,-8.613999486E-1,1.522300005E0
5.567500469E1,1.978999972E0,7.292000055E-1,6.268999577E-1
5.570497656E1,2.208999991E-1,2.248999923E-1,-3.571999967E-1
5.572499688E1,4.140999913E-1,3.143999875E-1,8.351999521E-1
5.575500000E1,1.183499932E0,1.207299948E0,1.887899995E0
5.578500156E1,1.839699984E0,2.103699923E0,1.342100024E0
5.581500469E1,2.185799837E0,1.810499907E0,1.755399942E0
5.584500625E1,1.174299955E0,2.398599863E0,7.756999731E-1
5.587497656E1,4.621999860E-1,1.366299987E0,-9.139999747E-1
5.589500000E1,2.588999867E-1,-1.246999949E-1,-7.901999950E-1
5.592500156E1,-2.132999897E-1,-7.709999681E-1,-4.937999845E-1
5.595500313E1,-6.802999973E-1,1.125299931E0,-9.731999636E-1
5.598500469E1,9.746999741E-1,1.487399936E0,-2.382999897E0
5.601497500E1,1.183599949E0,-7.817999721E-1,-1.868999958E0
5.603499844E1,2.149000019E-1,-2.613199949E0,-1.708499908E0
5.606500000E1,-9.903999567E-1,-2.953699827E0,-3.638999760E-1
5.609500156E1,1.514799953E0,-1.290599942E0,-1.673900008E0
5.612500469E1,2.632200003E0,-8.026999831E-1,-1.697999954E0
5.615500625E1,2.609599829E0,-1.644299984E0,-3.589999974E-1
5.618497656E1,1.562799931E0,-1.687500000E0,1.158499956E0
5.620499844E1,-2.436999977E-1,7.261999846E-1,1.030499935E0
5.623500156E1,-2.989999950E-2,1.306999922E0,-1.739300013E0
5.626500313E1,-2.492999882E-1,-8.307999969E-1,-3.031199932E0
5.629500469E1,-8.808999658E-1,-1.066100001E0,-1.419699907E0
5.632497656E1,3.828999996E-1,-2.832999825E-1,-2.361500025E0
5.634499844E1,5.250999928E-1,-1.002099991E0,-1.959800005E0
5.637500000E1,1.027999967E-1,-5.174999833E-1,-1.253799915E0
5.640500156E1,1.491099954E0,1.229999959E-2,-6.949999928E-1
5.643500312E1,1.508000016E0,3.215000033E-1,-1.480599999E0
5.646500625E1,5.345999599E-1,-1.080999970E-1,-1.629799962E0
5.649497656E1,1.921999902E-1,-1.412400007E0,6.407999992E-1
5.651500000E1,7.199999690E-2,-1.174999952E0,1.105700016E0
5.654500156E1,1.310099959E0,9.202999473E-1,-4.621999860E-1
5.657500312E1,4.165999889E-1,4.602499962E0,1.024899960E0
5.660500469E1,1.032599926E0,4.435199738E0,-5.791999698E-1
5.663497656E1,7.026999593E-1,1.425199986E0,8.754000068E-1
5.665499844E1,-1.156999990E-1,-5.600000024E-1,-3.746999800E-1
5.668500156E1,-6.668999791E-1,-1.338699937E0,5.552999973E-1
5.671500156E1,1.329999976E-2,7.688999772E-1,1.000499964E0
5.674500469E1,1.388299942E0,3.828799963E0,1.736499906E0
5.677497500E1,8.971999884E-1,3.516999960E0,4.327999949E-1
5.679499688E1,2.549000084E-1,1.528100014E0,2.568999827E-1
5.682500156E1,1.051900029E0,-4.098999798E-1,-1.447999924E-1
5.685500156E1,-1.233699918E0,-1.562699914E0,-1.576000005E-1
5.688500313E1,7.149999738E-1,-2.178699970E0,3.747499943E0
5.691500469E1,3.156100035E0,1.134799957E0,2.380999923E-1
5.694497656E1,-1.312299967E0,2.577600002E0,-6.613999605E-1
5.696499844E1,-1.684999943E0,3.630899906E0,-2.204799891E0
5.699500000E1,2.099999925E-3,8.299999833E-1,1.579599977E0
5.702500156E1,2.444999963E-1,1.541899920E0,1.866299987E0
5.705500469E1,-5.150000006E-2,1.038699985E0,1.617599964E0
5.708497500E1,1.014799953E0,1.186699986E0,-1.110599995E0
5.710499688E1,3.569999933E-1,1.503299952E0,4.153999984E-1
