"Time (s)","Acceleration x (m/s^2)","Acceleration y (m/s^2)","Acceleration z (m/s^2)"
0.000000000E0,-5.267243981E-1,-8.906430602E-1,9.835380554E0
2.499531300E-2,-5.363011956E-1,-9.385270476E-1,9.720458984E0
4.999062500E-2,-4.692635238E-1,-8.523358107E-1,9.787496567E0
7.001406300E-2,-2.681505978E-1,-8.044517636E-1,9.768342972E0
9.501093800E-2,-1.723825186E-1,-9.097966552E-1,9.835380554E0
1.200078130E-1,-1.532289088E-1,-9.002198577E-1,1.025675964E1
1.450046880E-1,6.703764945E-2,-7.086837292E-1,9.979032516E0
1.700000000E-1,8.619125932E-2,-8.810662031E-1,9.691728592E0
1.949953130E-1,-4.788403213E-2,-1.101332784E0,9.730035782E0
2.199937500E-1,-2.873042040E-2,-1.043871999E0,9.787496567E0
2.400140630E-1,-2.011129409E-1,-1.110909581E0,9.672574997E0
2.650125000E-1,-3.830722570E-1,-1.120486379E0,9.758766174E0
2.900093750E-1,-4.692635238E-1,-9.289502501E-1,1.005564690E1
3.150046880E-1,-5.458779931E-1,-7.182605267E-1,9.730035782E0
3.400015630E-1,-1.254561663E0,-4.405331016E-1,9.366117477E0
3.649968750E-1,-1.570596337E0,-4.884171486E-1,9.241618156E0
3.899937500E-1,-1.963245392E0,-6.129156351E-1,9.203310966E0
4.149937500E-1,-2.279279947E0,-7.852981687E-1,9.212887764E0
4.350187500E-1,-2.106897593E0,-9.002198577E-1,9.528923035E0
4.600093750E-1,-1.455674648E0,-9.576807022E-1,9.749189377E0
4.850062500E-1,-1.063025594E0,-1.072602391E0,9.576807022E0
5.100031250E-1,-8.140285611E-1,-1.082179189E0,9.911994934E0
5.350015630E-1,-4.884171486E-1,-1.072602391E0,9.749189377E0
5.599953130E-1,-2.873041928E-1,-6.607996821E-1,9.816226959E0
5.849921880E-1,1.436520964E-1,-4.501099288E-1,9.931148529E0
6.050140630E-1,1.340752989E-1,-5.650315881E-1,9.921571732E0
6.300093750E-1,3.830722719E-2,-9.002198577E-1,9.940725327E0
6.550078130E-1,-9.576806426E-2,-9.768342972E-1,9.873687744E0
6.800031250E-1,-3.064578176E-1,-7.852981687E-1,9.777919769E0
7.050000000E-1,-4.884171486E-1,-7.469909191E-1,9.787496567E0
7.299953130E-1,-6.033388376E-1,-9.385270476E-1,9.720458984E0
7.549937500E-1,-6.129156351E-1,-1.063025594E0,9.691728592E0
7.750156250E-1,-6.512228847E-1,-1.072602391E0,9.701305389E0
8.000109380E-1,-7.278373241E-1,-9.864110947E-1,9.672574997E0
8.250078130E-1,-8.044517636E-1,-8.044517636E-1,9.682151794E0
8.500046880E-1,-7.278373241E-1,-8.140285611E-1,9.787496567E0
8.750015630E-1,-7.182605267E-1,-8.523358107E-1,9.787496567E0
8.999968750E-1,-7.565677166E-1,-7.852981687E-1,9.768342972E0
9.249937500E-1,-6.607996821E-1,-7.278373241E-1,9.787496567E0
9.499906250E-1,-5.746083856E-1,-7.852981687E-1,9.797073364E0
9.700125000E-1,-4.884171486E-1,-9.097966552E-1,9.864110947E0
9.950093750E-1,-4.213795066E-1,-9.959878922E-1,9.902418137E0
1.020004688E0,-3.543418646E-1,-9.576807022E-1,9.825803757E0
1.045003125E0,-2.681505978E-1,-9.481038451E-1,9.777919769E0
1.069998438E0,-2.202665508E-1,-9.385270476E-1,9.758766174E0
1.095009375E0,-2.681505978E-1,-9.002198577E-1,9.825803757E0
1.115010938E0,-3.160346150E-1,-8.906430602E-1,9.873687744E0
1.135051563E0,-3.926490843E-1,-8.044517636E-1,9.825803757E0
1.160004688E0,-4.692635238E-1,-7.757213712E-1,9.787496567E0
1.185001563E0,-5.458779931E-1,-8.140285611E-1,9.758766174E0
1.209996875E0,-6.416460276E-1,-8.619126081E-1,9.758766174E0
1.234993750E0,-6.607996821E-1,-9.097966552E-1,9.758766174E0
1.259990625E0,-6.416460276E-1,-9.576807022E-1,9.749189377E0
1.280012500E0,-5.937620401E-1,-9.481038451E-1,9.768342972E0
1.305009375E0,-5.841852427E-1,-9.672574997E-1,9.758766174E0
1.330006250E0,-5.171475410E-1,-9.385270476E-1,9.749189377E0
1.355025000E0,-4.596867263E-1,-8.714894056E-1,9.768342972E0
1.379998438E0,-4.022258818E-1,-8.140285611E-1,9.787496567E0
1.404995313E0,-4.118026793E-1,-8.331822157E-1,9.806650162E0
1.429992188E0,-3.830722570E-1,-8.427590132E-1,9.854534149E0
1.450014063E0,-3.830722570E-1,-7.757213712E-1,9.816226959E0
1.475010938E0,-4.022258818E-1,-8.236053586E-1,9.844957352E0
1.500006250E0,-4.022258818E-1,-9.097966552E-1,9.825803757E0
1.525004688E0,-4.501099288E-1,-9.576807022E-1,9.825803757E0
1.550000000E0,-4.501099288E-1,-9.672574997E-1,9.806650162E0
1.575009375E0,-4.884171486E-1,-9.097966552E-1,9.768342972E0
1.599992188E0,-5.554547906E-1,-8.619126081E-1,9.768342972E0
1.620015625E0,-5.458779931E-1,-8.523358107E-1,9.777919769E0
1.645012500E0,-5.458779931E-1,-8.714894056E-1,9.739612579E0
1.670007813E0,-5.171475410E-1,-8.810662031E-1,9.768342972E0
1.695039063E0,-5.075707436E-1,-8.331822157E-1,9.797073364E0
1.720000000E0,-4.501099288E-1,-8.140285611E-1,9.787496567E0
1.744998438E0,-4.501099288E-1,-8.331822157E-1,9.787496567E0
1.769993750E0,-4.309563041E-1,-8.906430602E-1,9.816226959E0
1.794990625E0,-4.309563041E-1,-9.097966552E-1,9.777919769E0
1.815015625E0,-4.213795066E-1,-9.289502501E-1,9.835380554E0
1.840009375E0,-4.309563041E-1,-8.906430602E-1,9.806650162E0
1.865004688E0,-4.405331016E-1,-9.002198577E-1,9.806650162E0
1.890001563E0,-4.405331016E-1,-8.810662031E-1,9.777919769E0
1.914998438E0,-4.979939461E-1,-8.810662031E-1,9.797073364E0
1.939995313E0,-4.788403511E-1,-8.714894056E-1,9.787496567E0
1.964992188E0,-4.692635238E-1,-8.523358107E-1,9.816226959E0
1.985014063E0,-4.501099288E-1,-8.714894056E-1,9.787496567E0
2.010009375E0,-4.596867263E-1,-8.906430602E-1,9.797073364E0
2.035006250E0,-4.501099288E-1,-8.906430602E-1,9.806650162E0
2.060003125E0,-4.596867263E-1,-8.714894056E-1,9.777919769E0
2.085000000E0,-4.979939461E-1,-8.619126081E-1,9.777919769E0
2.109995313E0,-4.884171486E-1,-9.002198577E-1,9.768342972E0
2.135012500E0,-4.596867263E-1,-8.714894056E-1,9.806650162E0
2.155014063E0,-4.596867263E-1,-8.810662031E-1,9.835380554E0
2.180010938E0,-4.309563041E-1,-8.714894056E-1,9.806650162E0
2.205007813E0,-4.118026793E-1,-8.906430602E-1,9.768342972E0
2.230003125E0,-4.213795066E-1,-9.097966552E-1,9.777919769E0
2.255001563E0,-4.501099288E-1,-8.619126081E-1,9.787496567E0
2.279996875E0,-4.501099288E-1,-8.427590132E-1,9.797073364E0
2.304993750E0,-4.596867263E-1,-8.140285611E-1,9.797073364E0
2.325015625E0,-4.501099288E-1,-8.619126081E-1,9.758766174E0
2.350012500E0,-4.692635238E-1,-9.002198577E-1,9.768342972E0
2.375009375E0,-4.596867263E-1,-9.002198577E-1,9.777919769E0
2.400004688E0,-4.692635238E-1,-8.906430602E-1,9.816226959E0
2.425001563E0,-4.692635238E-1,-8.619126081E-1,9.797073364E0
2.449998438E0,-4.692635238E-1,-8.810662031E-1,9.806650162E0
2.474995313E0,-4.405331016E-1,-8.810662031E-1,9.768342972E0
2.499990625E0,-4.405331016E-1,-8.906430602E-1,9.825803757E0
2.520014063E0,-4.501099288E-1,-8.714894056E-1,9.777919769E0
2.545010938E0,-4.596867263E-1,-8.523358107E-1,9.787496567E0
2.570006250E0,-4.692635238E-1,-8.906430602E-1,9.797073364E0
2.595003125E0,-4.405331016E-1,-8.810662031E-1,9.787496567E0
2.619998438E0,-4.692635238E-1,-8.810662031E-1,9.806650162E0
2.644995313E0,-4.692635238E-1,-8.906430602E-1,9.787496567E0
2.669992188E0,-4.501099288E-1,-8.906430602E-1,9.777919769E0
2.690014063E0,-4.692635238E-1,-8.906430602E-1,9.758766174E0
2.715010938E0,-4.979939461E-1,-8.810662031E-1,9.777919769E0
2.735048438E0,-4.884171486E-1,-8.906430602E-1,9.797073364E0
2.759998438E0,-4.692635238E-1,-9.002198577E-1,9.816226959E0
2.784995313E0,-4.405331016E-1,-8.906430602E-1,9.787496567E0
2.809990625E0,-4.596867263E-1,-8.236053586E-1,9.825803757E0
2.830012500E0,-4.501099288E-1,-8.331822157E-1,9.787496567E0
2.855010938E0,-4.213795066E-1,-8.523358107E-1,9.777919769E0
2.880006250E0,-4.405331016E-1,-9.385270476E-1,9.787496567E0
2.905003125E0,-4.788403511E-1,-9.385270476E-1,9.777919769E0
2.930000000E0,-4.979939461E-1,-8.810662031E-1,9.787496567E0
2.954995313E0,-4.692635238E-1,-8.714894056E-1,9.806650162E0
2.979992188E0,-4.405331016E-1,-8.523358107E-1,9.787496567E0
3.000014063E0,-4.405331016E-1,-8.523358107E-1,9.777919769E0
3.025010938E0,-4.405331016E-1,-8.619126081E-1,9.777919769E0
3.050006250E0,-4.692635238E-1,-8.714894056E-1,9.806650162E0
3.075004688E0,-4.692635238E-1,-8.810662031E-1,9.797073364E0
3.100000000E0,-4.692635238E-1,-9.002198577E-1,9.806650162E0
3.124996875E0,-4.309563041E-1,-8.906430602E-1,9.797073364E0
3.149993750E0,-4.501099288E-1,-9.193734527E-1,9.768342972E0
3.170015625E0,-4.405331016E-1,-8.906430602E-1,9.797073364E0
3.195012500E0,-4.501099288E-1,-8.906430602E-1,9.777919769E0
3.220007813E0,-4.692635238E-1,-8.714894056E-1,9.758766174E0
3.245004688E0,-4.692635238E-1,-9.002198577E-1,9.797073364E0
3.270001563E0,-4.309563041E-1,-8.714894056E-1,9.787496567E0
3.294998438E0,-4.692635238E-1,-8.906430602E-1,9.777919769E0
3.319993750E0,-4.788403511E-1,-8.810662031E-1,9.825803757E0
3.344990625E0,-4.309563041E-1,-8.619126081E-1,9.787496567E0
3.365012500E0,-4.596867263E-1,-8.619126081E-1,9.749189377E0
3.390009375E0,-4.596867263E-1,-9.097966552E-1,9.758766174E0
3.415006250E0,-4.213795066E-1,-9.289502501E-1,9.825803757E0
3.440003125E0,-4.022258818E-1,-8.427590132E-1,9.816226959E0
3.464998438E0,-4.213795066E-1,-8.331822157E-1,9.825803757E0
3.489995313E0,-4.501099288E-1,-8.714894056E-1,9.806650162E0
3.514995313E0,-4.501099288E-1,-9.097966552E-1,9.777919769E0
3.535014063E0,-4.788403511E-1,-9.385270476E-1,9.787496567E0
3.555031250E0,-4.884171486E-1,-9.193734527E-1,9.797073364E0
3.580001563E0,-4.788403511E-1,-8.810662031E-1,9.777919769E0
3.604998438E0,-4.788403511E-1,-8.906430602E-1,9.787496567E0
3.629993750E0,-4.405331016E-1,-8.523358107E-1,9.777919769E0
3.654992188E0,-4.596867263E-1,-8.619126081E-1,9.758766174E0
3.675012500E0,-4.405331016E-1,-8.619126081E-1,9.777919769E0
3.700007813E0,-4.501099288E-1,-8.523358107E-1,9.777919769E0
3.725006250E0,-4.501099288E-1,-8.714894056E-1,9.806650162E0
3.750003125E0,-4.309563041E-1,-8.906430602E-1,9.816226959E0
3.775000000E0,-4.501099288E-1,-9.002198577E-1,9.777919769E0
3.799995313E0,-4.213795066E-1,-8.523358107E-1,9.749189377E0
3.824992188E0,-4.884171486E-1,-8.523358107E-1,9.739612579E0
3.845014063E0,-4.884171486E-1,-9.002198577E-1,9.768342972E0
3.870010938E0,-4.596867263E-1,-9.289502501E-1,9.835380554E0
3.895007813E0,-4.405331016E-1,-9.672574997E-1,9.806650162E0
3.920003125E0,-4.309563041E-1,-9.959878922E-1,9.806650162E0
3.945000000E0,-4.213795066E-1,-9.002198577E-1,9.768342972E0
3.969996875E0,-4.309563041E-1,-8.427590132E-1,9.797073364E0
3.994992188E0,-4.309563041E-1,-8.619126081E-1,9.816226959E0
4.015014063E0,-4.692635238E-1,-8.810662031E-1,9.806650162E0
4.040010938E0,-4.979939461E-1,-9.385270476E-1,9.777919769E0
4.065009375E0,-5.267243981E-1,-9.289502501E-1,9.777919769E0
4.090004688E0,-4.884171486E-1,-8.236053586E-1,9.806650162E0
4.115001563E0,-5.267243981E-1,-7.757213712E-1,9.797073364E0
4.139996875E0,-5.650315881E-1,-8.236053586E-1,9.758766174E0
4.164993750E0,-5.363011956E-1,-9.002198577E-1,9.768342972E0
4.189990625E0,-4.884171486E-1,-8.906430602E-1,9.787496567E0
4.210012500E0,-4.884171486E-1,-8.619126081E-1,9.749189377E0
4.235009375E0,-4.692635238E-1,-8.427590132E-1,9.758766174E0
4.260006250E0,-4.501099288E-1,-8.906430602E-1,9.758766174E0
4.285003125E0,-3.830722570E-1,-8.906430602E-1,9.787496567E0
4.309998438E0,-3.639186621E-1,-9.002198577E-1,9.768342972E0
4.334995313E0,-4.501099288E-1,-1.043871999E0,9.768342972E0
4.359992188E0,-4.884171486E-1,-1.024718285E0,9.777919769E0
4.380014063E0,-4.501099288E-1,-9.576807022E-1,9.835380554E0
4.405010938E0,-3.256114423E-1,-8.619126081E-1,9.825803757E0
4.430006250E0,-2.011129409E-1,-8.331822157E-1,9.768342972E0
4.455003125E0,-1.149216816E-1,-9.768342972E-1,9.787496567E0
4.479998438E0,-1.628057212E-1,-9.864110947E-1,9.864110947E0
4.504996875E0,-2.681505978E-1,-8.906430602E-1,9.921571732E0
4.529992188E0,-4.309563041E-1,-7.757213712E-1,9.825803757E0
4.550015625E0,-5.075707436E-1,-8.044517636E-1,9.701305389E0
4.575014063E0,-7.374141216E-1,-8.236053586E-1,9.595960617E0
4.600007813E0,-8.427590132E-1,-8.714894056E-1,9.605537415E0
4.625004688E0,-8.044517636E-1,-9.481038451E-1,9.835380554E0
4.650000000E0,-7.086837292E-1,-9.959878922E-1,9.988609314E0
4.674998438E0,-5.171475410E-1,-9.002198577E-1,9.768342972E0
4.699993750E0,-4.501099288E-1,-9.289502501E-1,9.519346237E0
4.724990625E0,-4.022258818E-1,-1.139639974E0,9.653421402E0
4.745012500E0,-3.447650373E-1,-1.120486379E0,9.844957352E0
4.765020313E0,-2.968810201E-1,-9.289502501E-1,9.873687744E0
4.789998438E0,-2.681505978E-1,-6.895300746E-1,9.854534149E0
4.815018750E0,-2.202665508E-1,-7.182605267E-1,9.749189377E0
4.839993750E0,-1.244984865E-1,-8.906430602E-1,9.825803757E0
4.860014063E0,-1.244984865E-1,-9.576807022E-1,9.873687744E0
4.885012500E0,-1.915361285E-1,-9.768342972E-1,9.864110947E0
4.910007813E0,-3.256114423E-1,-9.481038451E-1,9.854534149E0
4.935004688E0,-3.926490843E-1,-9.289502501E-1,9.758766174E0
4.960000000E0,-4.022258818E-1,-9.097966552E-1,9.682151794E0
4.984996875E0,-4.884171486E-1,-9.385270476E-1,9.634267807E0
5.009993750E0,-5.267243981E-1,-8.810662031E-1,9.758766174E0
5.034990625E0,-5.554547906E-1,-8.810662031E-1,9.806650162E0
5.055040625E0,-4.692635238E-1,-7.469909191E-1,9.806650162E0
5.080009375E0,-4.405331016E-1,-7.374141216E-1,9.749189377E0
5.105006250E0,-3.351882398E-1,-8.236053586E-1,9.787496567E0
5.130001563E0,-2.873041928E-1,-9.289502501E-1,9.806650162E0
5.154998438E0,-2.585737705E-1,-9.768342972E-1,9.825803757E0
5.175025000E0,-2.585737705E-1,-9.193734527E-1,9.806650162E0
5.199985938E0,-2.011129409E-1,-8.619126081E-1,9.797073364E0
5.220007813E0,-2.106897533E-1,-8.714894056E-1,9.768342972E0
5.245004688E0,-2.011129409E-1,-9.002198577E-1,9.797073364E0
5.270000000E0,-1.915361285E-1,-9.576807022E-1,9.825803757E0
5.295009375E0,-1.532289088E-1,-9.385270476E-1,9.873687744E0
5.319993750E0,-1.532289088E-1,-9.002198577E-1,9.806650162E0
5.344990625E0,-1.532289088E-1,-9.002198577E-1,9.777919769E0
5.365029688E0,-1.915361285E-1,-8.714894056E-1,9.777919769E0
5.390009375E0,-2.489969730E-1,-9.097966552E-1,9.739612579E0
5.415004688E0,-3.351882398E-1,-9.385270476E-1,9.739612579E0
5.440001563E0,-3.830722570E-1,-9.385270476E-1,9.806650162E0
5.464998438E0,-4.022258818E-1,-8.523358107E-1,9.844957352E0
5.489995313E0,-4.022258818E-1,-8.044517636E-1,9.806650162E0
5.514992188E0,-3.447650373E-1,-8.331822157E-1,9.806650162E0
5.535014063E0,-2.873041928E-1,-8.906430602E-1,9.768342972E0
5.560009375E0,-2.681505978E-1,-9.097966552E-1,9.730035782E0
5.585007813E0,-2.777273953E-1,-9.193734527E-1,9.739612579E0
5.610003125E0,-2.777273953E-1,-9.289502501E-1,9.797073364E0
5.635001563E0,-2.873041928E-1,-8.906430602E-1,9.816226959E0
5.655031250E0,-2.777273953E-1,-8.810662031E-1,9.835380554E0
5.679987500E0,-2.681505978E-1,-8.714894056E-1,9.777919769E0
5.700009375E0,-2.968810201E-1,-8.619126081E-1,9.777919769E0
5.725006250E0,-3.160346150E-1,-8.810662031E-1,9.758766174E0
5.750001563E0,-3.064578176E-1,-8.906430602E-1,9.768342972E0
5.775001563E0,-3.256114423E-1,-9.002198577E-1,9.806650162E0
5.799995313E0,-2.681505978E-1,-9.193734527E-1,9.797073364E0
5.824992188E0,-2.585737705E-1,-8.810662031E-1,9.816226959E0
5.845014063E0,-2.585737705E-1,-8.810662031E-1,9.816226959E0
5.870010938E0,-2.585737705E-1,-8.714894056E-1,9.777919769E0
5.895051563E0,-3.256114423E-1,-8.810662031E-1,9.777919769E0
5.920003125E0,-3.160346150E-1,-9.002198577E-1,9.768342972E0
5.945000000E0,-3.160346150E-1,-9.002198577E-1,9.787496567E0
5.969995313E0,-2.873041928E-1,-8.714894056E-1,9.806650162E0
5.994993750E0,-2.777273953E-1,-8.906430602E-1,9.806650162E0
6.015015625E0,-2.873041928E-1,-9.097966552E-1,9.806650162E0
6.035048438E0,-2.873041928E-1,-9.289502501E-1,9.825803757E0
6.060001563E0,-2.873041928E-1,-9.002198577E-1,9.787496567E0
6.085000000E0,-2.873041928E-1,-8.810662031E-1,9.777919769E0
6.109995313E0,-2.968810201E-1,-8.906430602E-1,9.777919769E0
6.134992188E0,-3.064578176E-1,-8.810662031E-1,9.787496567E0
6.155014063E0,-3.256114423E-1,-8.714894056E-1,9.749189377E0
6.180010938E0,-3.256114423E-1,-9.097966552E-1,9.787496567E0
6.205007813E0,-3.064578176E-1,-9.481038451E-1,9.806650162E0
6.230003125E0,-3.064578176E-1,-9.289502501E-1,9.825803757E0
6.255000000E0,-2.585737705E-1,-8.331822157E-1,9.835380554E0
6.279995313E0,-2.873041928E-1,-8.331822157E-1,9.787496567E0
6.304993750E0,-2.777273953E-1,-8.714894056E-1,9.777919769E0
6.325015625E0,-2.777273953E-1,-8.810662031E-1,9.720458984E0
6.350010938E0,-3.160346150E-1,-9.289502501E-1,9.758766174E0
6.375007813E0,-3.064578176E-1,-9.002198577E-1,9.797073364E0
6.400004688E0,-3.160346150E-1,-8.906430602E-1,9.835380554E0
6.425001563E0,-2.777273953E-1,-9.097966552E-1,9.797073364E0
6.449996875E0,-2.777273953E-1,-9.193734527E-1,9.787496567E0
6.474993750E0,-2.585737705E-1,-8.810662031E-1,9.749189377E0
6.499990625E0,-3.064578176E-1,-8.714894056E-1,9.768342972E0
6.520012500E0,-3.351882398E-1,-8.523358107E-1,9.768342972E0
6.545009375E0,-3.351882398E-1,-8.523358107E-1,9.797073364E0
6.570004688E0,-3.160346150E-1,-9.097966552E-1,9.797073364E0
6.595003125E0,-2.777273953E-1,-8.810662031E-1,9.797073364E0
6.615029688E0,-2.968810201E-1,-9.002198577E-1,9.797073364E0
6.639989063E0,-3.160346150E-1,-9.193734527E-1,9.797073364E0
6.660010938E0,-2.777273953E-1,-9.002198577E-1,9.797073364E0
6.685009375E0,-2.873041928E-1,-8.810662031E-1,9.787496567E0
6.710004688E0,-2.777273953E-1,-8.906430602E-1,9.787496567E0
6.735000000E0,-2.873041928E-1,-8.810662031E-1,9.777919769E0
6.759996875E0,-3.256114423E-1,-8.810662031E-1,9.797073364E0
6.784995313E0,-3.160346150E-1,-8.810662031E-1,9.806650162E0
6.809990625E0,-3.256114423E-1,-8.810662031E-1,9.777919769E0
6.830012500E0,-3.160346150E-1,-8.906430602E-1,9.787496567E0
6.855007813E0,-2.968810201E-1,-8.906430602E-1,9.777919769E0
6.880006250E0,-3.160346150E-1,-9.002198577E-1,9.787496567E0
6.905003125E0,-2.968810201E-1,-9.289502501E-1,9.787496567E0
6.929998438E0,-2.681505978E-1,-8.810662031E-1,9.816226959E0
6.954995313E0,-2.873041928E-1,-8.331822157E-1,9.739612579E0
6.979992188E0,-3.160346150E-1,-9.193734527E-1,9.739612579E0
7.000014063E0,-2.968810201E-1,-9.481038451E-1,9.749189377E0
7.025010938E0,-3.064578176E-1,-8.714894056E-1,9.777919769E0
7.050006250E0,-3.160346150E-1,-8.619126081E-1,9.787496567E0
7.075003125E0,-3.160346150E-1,-9.193734527E-1,9.797073364E0
7.100000000E0,-2.777273953E-1,-8.427590132E-1,9.835380554E0
7.124996875E0,-2.489969730E-1,-7.661445141E-1,9.787496567E0
7.149992188E0,-2.681505978E-1,-8.810662031E-1,9.739612579E0
7.170015625E0,-3.064578176E-1,-9.576807022E-1,9.749189377E0
7.195012500E0,-2.873041928E-1,-9.385270476E-1,9.777919769E0
7.220007813E0,-3.160346150E-1,-8.810662031E-1,9.749189377E0
7.245004688E0,-3.447650373E-1,-8.714894056E-1,9.787496567E0
7.270000000E0,-3.543418646E-1,-8.714894056E-1,9.777919769E0
7.294996875E0,-3.160346150E-1,-8.906430602E-1,9.758766174E0
7.319993750E0,-2.873041928E-1,-8.619126081E-1,9.768342972E0
7.344990625E0,-2.681505978E-1,-8.810662031E-1,9.777919769E0
7.365012500E0,-2.585737705E-1,-8.906430602E-1,9.797073364E0
7.390009375E0,-2.681505978E-1,-8.714894056E-1,9.806650162E0
7.415009375E0,-2.777273953E-1,-8.810662031E-1,9.787496567E0
7.440001563E0,-2.777273953E-1,-9.097966552E-1,9.787496567E0
7.464998438E0,-2.873041928E-1,-8.810662031E-1,9.777919769E0
7.489995313E0,-3.256114423E-1,-8.810662031E-1,9.749189377E0
7.514992188E0,-3.064578176E-1,-8.810662031E-1,9.739612579E0
7.535045313E0,-3.351882398E-1,-8.714894056E-1,9.749189377E0
7.560009375E0,-3.064578176E-1,-8.714894056E-1,9.777919769E0
7.585006250E0,-3.160346150E-1,-8.810662031E-1,9.797073364E0
7.610003125E0,-2.968810201E-1,-8.714894056E-1,9.768342972E0
7.635021875E0,-2.873041928E-1,-9.002198577E-1,9.787496567E0
7.659995313E0,-2.681505978E-1,-9.002198577E-1,9.787496567E0
7.684992188E0,-2.585737705E-1,-9.002198577E-1,9.787496567E0
7.705015625E0,-2.777273953E-1,-8.810662031E-1,9.777919769E0
7.730010938E0,-2.873041928E-1,-8.619126081E-1,9.797073364E0
7.755006250E0,-2.873041928E-1,-8.906430602E-1,9.777919769E0
7.780003125E0,-3.160346150E-1,-8.714894056E-1,9.768342972E0
7.805000000E0,-3.256114423E-1,-8.714894056E-1,9.758766174E0
7.829996875E0,-3.256114423E-1,-8.906430602E-1,9.749189377E0
7.854992188E0,-3.160346150E-1,-8.906430602E-1,9.797073364E0
7.875015625E0,-2.968810201E-1,-9.002198577E-1,9.768342972E0
7.900012500E0,-3.064578176E-1,-9.193734527E-1,9.787496567E0
7.925009375E0,-2.968810201E-1,-9.002198577E-1,9.816226959E0
7.950004688E0,-2.777273953E-1,-8.236053586E-1,9.806650162E0
7.975001563E0,-2.777273953E-1,-8.140285611E-1,9.787496567E0
7.999996875E0,-2.777273953E-1,-9.002198577E-1,9.758766174E0
8.024995313E0,-2.777273953E-1,-9.385270476E-1,9.749189377E0
8.049990625E0,-3.160346150E-1,-9.385270476E-1,9.777919769E0
8.070012500E0,-3.160346150E-1,-9.193734527E-1,9.787496567E0
8.095009375E0,-3.256114423E-1,-8.619126081E-1,9.806650162E0
8.120006250E0,-2.873041928E-1,-8.714894056E-1,9.777919769E0
8.145003125E0,-3.064578176E-1,-8.810662031E-1,9.758766174E0
8.169998438E0,-2.968810201E-1,-8.810662031E-1,9.749189377E0
8.194996875E0,-2.968810201E-1,-9.002198577E-1,9.768342972E0
8.219992188E0,-2.968810201E-1,-8.810662031E-1,9.806650162E0
8.240014063E0,-3.064578176E-1,-8.714894056E-1,9.797073364E0
8.265010938E0,-3.064578176E-1,-8.714894056E-1,9.777919769E0
8.290006250E0,-2.873041928E-1,-9.097966552E-1,9.768342972E0
8.315004688E0,-2.968810201E-1,-9.193734527E-1,9.758766174E0
8.340000000E0,-3.160346150E-1,-8.810662031E-1,9.749189377E0
8.364995313E0,-3.256114423E-1,-8.619126081E-1,9.768342972E0
8.389993750E0,-3.351882398E-1,-8.810662031E-1,9.768342972E0
8.410015625E0,-3.064578176E-1,-9.097966552E-1,9.777919769E0
8.435014063E0,-2.873041928E-1,-9.097966552E-1,9.787496567E0
8.460007813E0,-3.064578176E-1,-8.810662031E-1,9.797073364E0
8.485004688E0,-2.777273953E-1,-8.714894056E-1,9.787496567E0
8.510001563E0,-3.064578176E-1,-8.810662031E-1,9.758766174E0
8.534996875E0,-3.256114423E-1,-8.810662031E-1,9.749189377E0
8.559993750E0,-3.064578176E-1,-8.619126081E-1,9.777919769E0
8.584990625E0,-3.351882398E-1,-8.810662031E-1,9.768342972E0
8.605012500E0,-3.160346150E-1,-9.002198577E-1,9.749189377E0
8.630009375E0,-3.160346150E-1,-9.097966552E-1,9.777919769E0
8.655009375E0,-2.873041928E-1,-8.906430602E-1,9.797073364E0
8.680001563E0,-3.160346150E-1,-9.002198577E-1,9.758766174E0
8.704998438E0,-3.064578176E-1,-8.810662031E-1,9.739612579E0
8.729995313E0,-3.064578176E-1,-8.714894056E-1,9.758766174E0
8.754992188E0,-3.256114423E-1,-8.906430602E-1,9.768342972E0
8.775014063E0,-2.968810201E-1,-9.193734527E-1,9.806650162E0
8.800010938E0,-2.873041928E-1,-8.810662031E-1,9.777919769E0
8.825007813E0,-2.873041928E-1,-8.523358107E-1,9.777919769E0
8.850003125E0,-3.160346150E-1,-8.619126081E-1,9.777919769E0
8.875000000E0,-3.064578176E-1,-8.810662031E-1,9.739612579E0
8.895023438E0,-3.064578176E-1,-9.097966552E-1,9.749189377E0
8.919987500E0,-3.160346150E-1,-9.097966552E-1,9.739612579E0
8.940009375E0,-3.160346150E-1,-8.906430602E-1,9.758766174E0
8.965006250E0,-3.256114423E-1,-8.714894056E-1,9.777919769E0
8.990003125E0,-2.968810201E-1,-8.619126081E-1,9.739612579E0
9.015004688E0,-2.873041928E-1,-8.619126081E-1,9.730035782E0
9.039995313E0,-2.777273953E-1,-8.619126081E-1,9.749189377E0
9.064992188E0,-2.968810201E-1,-8.523358107E-1,9.787496567E0
9.085015625E0,-2.777273953E-1,-9.097966552E-1,9.749189377E0
9.110010938E0,-3.160346150E-1,-9.002198577E-1,9.768342972E0
9.135007813E0,-3.064578176E-1,-9.097966552E-1,9.768342972E0
9.160003125E0,-3.160346150E-1,-8.906430602E-1,9.768342972E0
9.185000000E0,-3.064578176E-1,-8.906430602E-1,9.768342972E0
9.209995313E0,-3.351882398E-1,-9.002198577E-1,9.749189377E0
9.234993750E0,-3.351882398E-1,-8.810662031E-1,9.739612579E0
9.255021875E0,-3.160346150E-1,-8.619126081E-1,9.777919769E0
9.280010938E0,-2.968810201E-1,-8.810662031E-1,9.777919769E0
9.305007813E0,-2.873041928E-1,-8.810662031E-1,9.787496567E0
9.330004688E0,-2.968810201E-1,-8.810662031E-1,9.758766174E0
9.355001563E0,-2.681505978E-1,-8.810662031E-1,9.787496567E0
9.375004688E0,-2.968810201E-1,-9.097966552E-1,9.768342972E0
9.395014063E0,-2.968810201E-1,-9.097966552E-1,9.758766174E0
9.420010938E0,-3.064578176E-1,-8.810662031E-1,9.739612579E0
9.445007813E0,-2.968810201E-1,-8.810662031E-1,9.758766174E0
9.470003125E0,-2.873041928E-1,-9.097966552E-1,9.739612579E0
9.495000000E0,-2.777273953E-1,-9.097966552E-1,9.787496567E0
9.519996875E0,-2.873041928E-1,-9.002198577E-1,9.806650162E0
9.544993750E0,-3.256114423E-1,-9.002198577E-1,9.797073364E0
9.565015625E0,-3.256114423E-1,-8.810662031E-1,9.797073364E0
9.590010938E0,-3.543418646E-1,-8.427590132E-1,9.749189377E0
9.615040625E0,-3.543418646E-1,-8.044517636E-1,9.720458984E0
9.640004688E0,-3.734954596E-1,-8.140285611E-1,9.682151794E0
9.665001563E0,-3.351882398E-1,-9.289502501E-1,9.710882187E0
9.689996875E0,-2.968810201E-1,-1.015141487E0,9.777919769E0
9.714993750E0,-2.202665508E-1,-9.672574997E-1,9.835380554E0
9.739990625E0,-2.681505978E-1,-8.140285611E-1,9.873687744E0
9.760012500E0,-3.064578176E-1,-7.469909191E-1,9.797073364E0
9.785015625E0,-3.351882398E-1,-7.757213712E-1,9.701305389E0
9.810006250E0,-3.447650373E-1,-8.906430602E-1,9.662998199E0
9.835003125E0,-3.734954596E-1,-9.385270476E-1,9.720458984E0
9.859998438E0,-3.543418646E-1,-9.289502501E-1,9.787496567E0
9.884995313E0,-3.064578176E-1,-8.810662031E-1,9.825803757E0
9.909990625E0,-2.681505978E-1,-8.906430602E-1,9.787496567E0
9.930014063E0,-2.777273953E-1,-8.714894056E-1,9.758766174E0
9.955010938E0,-2.585737705E-1,-9.097966552E-1,9.720458984E0
9.980006250E0,-2.489969730E-1,-8.906430602E-1,9.720458984E0
1.000500469E1,-2.777273953E-1,-8.714894056E-1,9.739612579E0
1.002999844E1,-2.968810201E-1,-8.427590132E-1,9.777919769E0
1.005499688E1,-3.064578176E-1,-8.619126081E-1,9.806650162E0
1.007999219E1,-3.064578176E-1,-9.385270476E-1,9.777919769E0
1.010001406E1,-3.351882398E-1,-9.672574997E-1,9.768342972E0
1.012501250E1,-2.968810201E-1,-8.810662031E-1,9.758766174E0
1.015000781E1,-2.968810201E-1,-8.714894056E-1,9.701305389E0
1.017500469E1,-3.160346150E-1,-9.002198577E-1,9.720458984E0
1.020000000E1,-2.873041928E-1,-9.193734527E-1,9.797073364E0
1.022499844E1,-3.064578176E-1,-8.714894056E-1,9.797073364E0
1.024999375E1,-3.447650373E-1,-8.619126081E-1,9.806650162E0
1.027499063E1,-3.351882398E-1,-8.427590132E-1,9.797073364E0
1.029501250E1,-2.968810201E-1,-8.619126081E-1,9.768342972E0
1.032000938E1,-3.064578176E-1,-8.906430602E-1,9.701305389E0
1.034500625E1,-2.681505978E-1,-9.385270476E-1,9.730035782E0
1.037000156E1,-2.681505978E-1,-9.097966552E-1,9.758766174E0
1.039499844E1,-2.681505978E-1,-9.193734527E-1,9.749189377E0
1.041999531E1,-3.256114423E-1,-8.810662031E-1,9.777919769E0
1.044499219E1,-3.160346150E-1,-8.714894056E-1,9.787496567E0
1.046501406E1,-3.256114423E-1,-8.619126081E-1,9.758766174E0
1.049000938E1,-3.064578176E-1,-8.714894056E-1,9.730035782E0
1.051500625E1,-2.873041928E-1,-9.193734527E-1,9.749189377E0
1.053503594E1,-2.681505978E-1,-8.810662031E-1,9.749189377E0
1.055999375E1,-2.873041928E-1,-8.714894056E-1,9.768342972E0
1.058499063E1,-2.873041928E-1,-9.193734527E-1,9.758766174E0
1.060501250E1,-3.064578176E-1,-9.193734527E-1,9.787496567E0
1.063000938E1,-2.873041928E-1,-8.140285611E-1,9.797073364E0
1.065500625E1,-3.160346150E-1,-8.044517636E-1,9.768342972E0
1.068000156E1,-3.543418646E-1,-8.523358107E-1,9.701305389E0
1.070499844E1,-3.160346150E-1,-9.289502501E-1,9.749189377E0
1.072999375E1,-3.256114423E-1,-9.481038451E-1,9.768342972E0
1.075499219E1,-3.064578176E-1,-9.002198577E-1,9.730035782E0
1.077501406E1,-2.873041928E-1,-8.619126081E-1,9.777919769E0
1.080000938E1,-2.873041928E-1,-8.331822157E-1,9.777919769E0
1.082500781E1,-2.585737705E-1,-8.619126081E-1,9.777919769E0
1.085000312E1,-2.681505978E-1,-8.714894056E-1,9.739612579E0
1.087500000E1,-2.777273953E-1,-8.427590132E-1,9.730035782E0
1.089999531E1,-3.160346150E-1,-8.619126081E-1,9.749189377E0
1.092499219E1,-3.351882398E-1,-9.097966552E-1,9.787496567E0
1.094501562E1,-3.064578176E-1,-9.193734527E-1,9.787496567E0
1.097001094E1,-3.064578176E-1,-8.714894056E-1,9.787496567E0
1.099500781E1,-3.160346150E-1,-8.619126081E-1,9.749189377E0
1.102000469E1,-3.351882398E-1,-8.810662031E-1,9.730035782E0
1.104500000E1,-3.160346150E-1,-8.523358107E-1,9.758766174E0
1.106999688E1,-3.351882398E-1,-8.523358107E-1,9.720458984E0
1.109499375E1,-3.351882398E-1,-8.906430602E-1,9.768342972E0
1.111501562E1,-3.256114423E-1,-8.906430602E-1,9.787496567E0
1.114001250E1,-2.873041928E-1,-8.714894056E-1,9.787496567E0
1.116500938E1,-2.681505978E-1,-8.714894056E-1,9.768342972E0
1.119000469E1,-2.681505978E-1,-8.810662031E-1,9.777919769E0
1.121500312E1,-2.681505978E-1,-8.906430602E-1,9.749189377E0
1.123503750E1,-2.681505978E-1,-8.810662031E-1,9.730035782E0
1.125998906E1,-2.968810201E-1,-8.714894056E-1,9.749189377E0
1.128001094E1,-2.968810201E-1,-8.810662031E-1,9.787496567E0
1.130500781E1,-3.639186621E-1,-8.906430602E-1,9.806650162E0
1.133000469E1,-3.351882398E-1,-8.810662031E-1,9.787496567E0
1.135500156E1,-3.351882398E-1,-8.906430602E-1,9.720458984E0
1.137999531E1,-3.064578176E-1,-8.906430602E-1,9.710882187E0
1.140499375E1,-3.160346150E-1,-8.810662031E-1,9.730035782E0
1.142501719E1,-2.968810201E-1,-9.385270476E-1,9.739612579E0
1.145001250E1,-3.160346150E-1,-9.002198577E-1,9.816226959E0
1.147500938E1,-2.681505978E-1,-8.331822157E-1,9.797073364E0
1.150000469E1,-2.873041928E-1,-8.140285611E-1,9.787496567E0
1.152500156E1,-2.777273953E-1,-9.097966552E-1,9.749189377E0
1.154999844E1,-2.681505978E-1,-9.576807022E-1,9.749189377E0
1.157499531E1,-2.968810201E-1,-9.193734527E-1,9.768342972E0
1.159999062E1,-3.160346150E-1,-8.810662031E-1,9.749189377E0
1.162001250E1,-3.160346150E-1,-8.810662031E-1,9.768342972E0
1.164501094E1,-3.543418646E-1,-8.619126081E-1,9.768342972E0
1.167000625E1,-2.777273953E-1,-8.523358107E-1,9.758766174E0
1.169500313E1,-2.585737705E-1,-8.906430602E-1,9.749189377E0
1.171502812E1,-3.064578176E-1,-8.906430602E-1,9.739612579E0
1.173999062E1,-3.160346150E-1,-8.714894056E-1,9.749189377E0
1.176001250E1,-3.160346150E-1,-8.523358107E-1,9.797073364E0
1.178500938E1,-3.160346150E-1,-8.331822157E-1,9.768342972E0
1.181000469E1,-3.064578176E-1,-8.810662031E-1,9.768342972E0
1.183500312E1,-2.873041928E-1,-9.002198577E-1,9.777919769E0
1.185999844E1,-3.064578176E-1,-8.810662031E-1,9.730035782E0
1.188499531E1,-3.256114423E-1,-8.810662031E-1,9.749189377E0
1.190999062E1,-3.351882398E-1,-8.714894056E-1,9.758766174E0
1.193001406E1,-3.447650373E-1,-8.523358107E-1,9.768342972E0
1.195501094E1,-2.968810201E-1,-8.810662031E-1,9.777919769E0
1.198000625E1,-3.064578176E-1,-9.097966552E-1,9.758766174E0
1.200500469E1,-2.681505978E-1,-9.385270476E-1,9.768342972E0
1.202999844E1,-2.585737705E-1,-9.097966552E-1,9.758766174E0
1.205499531E1,-2.298433632E-1,-8.714894056E-1,9.768342972E0
1.207999219E1,-2.873041928E-1,-9.002198577E-1,9.787496567E0
1.210001406E1,-2.777273953E-1,-9.002198577E-1,9.777919769E0
1.212501094E1,-3.064578176E-1,-8.427590132E-1,9.777919769E0
1.215000625E1,-3.447650373E-1,-8.427590132E-1,9.777919769E0
1.217500469E1,-3.447650373E-1,-8.523358107E-1,9.768342972E0
1.220000000E1,-3.447650373E-1,-8.810662031E-1,9.749189377E0
1.222499688E1,-2.968810201E-1,-8.906430602E-1,9.739612579E0
1.224999375E1,-2.873041928E-1,-9.002198577E-1,9.749189377E0
1.227001563E1,-2.873041928E-1,-9.481038451E-1,9.749189377E0
1.229501250E1,-2.968810201E-1,-9.193734527E-1,9.787496567E0
1.232000781E1,-2.489969730E-1,-8.427590132E-1,9.797073364E0
1.234500625E1,-2.681505978E-1,-8.331822157E-1,9.797073364E0
1.237000156E1,-2.873041928E-1,-8.523358107E-1,9.768342972E0
1.239499844E1,-3.064578176E-1,-8.619126081E-1,9.749189377E0
1.241999375E1,-3.160346150E-1,-9.002198577E-1,9.720458984E0
1.244499219E1,-3.447650373E-1,-9.289502501E-1,9.739612579E0
1.246501406E1,-3.351882398E-1,-9.097966552E-1,9.787496567E0
1.249000938E1,-3.351882398E-1,-8.714894056E-1,9.806650162E0
1.251500625E1,-2.968810201E-1,-8.714894056E-1,9.749189377E0
1.254000312E1,-2.873041928E-1,-8.810662031E-1,9.730035782E0
1.256500000E1,-2.873041928E-1,-8.810662031E-1,9.749189377E0
1.258999531E1,-2.681505978E-1,-9.002198577E-1,9.758766174E0
1.261501875E1,-3.064578176E-1,-8.619126081E-1,9.806650162E0
1.263998906E1,-3.160346150E-1,-8.714894056E-1,9.777919769E0
1.266001094E1,-2.968810201E-1,-8.810662031E-1,9.797073364E0
1.268500781E1,-3.064578176E-1,-8.906430602E-1,9.758766174E0
1.271000312E1,-3.256114423E-1,-9.002198577E-1,9.739612579E0
1.273500000E1,-3.064578176E-1,-8.906430602E-1,9.730035782E0
1.275999531E1,-3.160346150E-1,-8.810662031E-1,9.730035782E0
1.278499375E1,-3.064578176E-1,-8.810662031E-1,9.787496567E0
1.280501563E1,-3.064578176E-1,-8.619126081E-1,9.787496567E0
1.283001250E1,-2.968810201E-1,-8.906430602E-1,9.797073364E0
1.285503438E1,-2.968810201E-1,-8.714894056E-1,9.787496567E0
1.288000469E1,-2.873041928E-1,-9.002198577E-1,9.739612579E0
1.290500156E1,-2.777273953E-1,-8.906430602E-1,9.739612579E0
1.292999688E1,-2.681505978E-1,-9.002198577E-1,9.768342972E0
1.295499531E1,-2.777273953E-1,-8.906430602E-1,9.720458984E0
1.297999063E1,-3.160346150E-1,-8.619126081E-1,9.797073364E0
1.300001250E1,-3.160346150E-1,-8.714894056E-1,9.777919769E0
1.302500938E1,-3.543418646E-1,-8.427590132E-1,9.768342972E0
1.305000469E1,-3.543418646E-1,-8.619126081E-1,9.739612579E0
1.307500312E1,-3.256114423E-1,-9.002198577E-1,9.749189377E0
1.309999844E1,-3.160346150E-1,-9.193734527E-1,9.749189377E0
1.312499531E1,-2.777273953E-1,-9.385270476E-1,9.777919769E0
1.314999219E1,-2.777273953E-1,-8.619126081E-1,9.797073364E0
1.317001406E1,-2.585737705E-1,-8.140285611E-1,9.787496567E0
1.319501094E1,-2.777273953E-1,-8.236053586E-1,9.806650162E0
1.321501563E1,-2.873041928E-1,-8.810662031E-1,9.730035782E0
1.323501719E1,-2.873041928E-1,-9.289502501E-1,9.739612579E0
1.325998906E1,-3.160346150E-1,-9.289502501E-1,9.758766174E0
1.328001094E1,-3.351882398E-1,-9.289502501E-1,9.768342972E0
1.330500781E1,-3.351882398E-1,-8.619126081E-1,9.797073364E0
1.333000469E1,-3.351882398E-1,-8.619126081E-1,9.758766174E0
1.335500000E1,-3.064578176E-1,-8.714894056E-1,9.720458984E0
1.337999688E1,-2.777273953E-1,-8.331822157E-1,9.739612579E0
1.340499375E1,-2.873041928E-1,-8.523358107E-1,9.730035782E0
1.342501562E1,-3.160346150E-1,-8.906430602E-1,9.768342972E0
1.345001250E1,-2.777273953E-1,-8.523358107E-1,9.768342972E0
1.347500938E1,-2.873041928E-1,-9.002198577E-1,9.797073364E0
1.350000469E1,-3.064578176E-1,-9.576807022E-1,9.758766174E0
1.352500156E1,-3.160346150E-1,-9.289502501E-1,9.806650162E0
1.354999688E1,-3.064578176E-1,-8.044517636E-1,9.797073364E0
1.357499688E1,-2.968810201E-1,-7.565677166E-1,9.739612579E0
1.359999062E1,-3.351882398E-1,-9.002198577E-1,9.749189377E0
1.362001250E1,-3.064578176E-1,-9.576807022E-1,9.749189377E0
1.364500938E1,-2.873041928E-1,-9.002198577E-1,9.739612579E0
1.367000625E1,-3.734954596E-1,-9.576807022E-1,9.758766174E0
1.369503594E1,-3.447650373E-1,-1.005564690E0,9.749189377E0
1.371999844E1,-2.968810201E-1,-9.385270476E-1,9.739612579E0
1.374499531E1,-2.681505978E-1,-9.097966552E-1,9.720458984E0
1.376999062E1,-3.064578176E-1,-8.044517636E-1,9.797073364E0
1.379001406E1,-3.351882398E-1,-8.044517636E-1,9.854534149E0
1.381503750E1,-2.777273953E-1,-7.852981687E-1,9.768342972E0
1.384000625E1,-2.777273953E-1,-8.810662031E-1,9.682151794E0
1.386500469E1,-3.447650373E-1,-9.193734527E-1,9.768342972E0
1.389000000E1,-3.639186621E-1,-8.619126081E-1,9.816226959E0
1.391501406E1,-3.351882398E-1,-8.619126081E-1,9.768342972E0
1.393999219E1,-2.777273953E-1,-8.810662031E-1,9.710882187E0
1.396001562E1,-2.298433632E-1,-9.097966552E-1,9.739612579E0
1.398501250E1,-2.202665508E-1,-8.619126081E-1,9.797073364E0
1.401000781E1,-3.256114423E-1,-8.140285611E-1,9.816226959E0
1.403500781E1,-3.543418646E-1,-7.852981687E-1,9.797073364E0
1.406000000E1,-3.256114423E-1,-8.810662031E-1,9.701305389E0
1.408499844E1,-2.681505978E-1,-9.959878922E-1,9.710882187E0
1.410999375E1,-3.543418646E-1,-9.576807022E-1,9.787496567E0
1.413502031E1,-3.447650373E-1,-9.289502501E-1,9.825803757E0
1.415998750E1,-2.873041928E-1,-8.331822157E-1,9.797073364E0
1.418000938E1,-2.489969730E-1,-8.331822157E-1,9.710882187E0
1.420500625E1,-2.106897533E-1,-8.714894056E-1,9.720458984E0
1.423000156E1,-2.489969730E-1,-8.906430602E-1,9.787496567E0
1.425499844E1,-2.298433632E-1,-8.714894056E-1,9.797073364E0
1.427999531E1,-2.394201756E-1,-8.427590132E-1,9.787496567E0
1.430499219E1,-3.064578176E-1,-8.523358107E-1,9.797073364E0
1.432501406E1,-2.777273953E-1,-9.193734527E-1,9.739612579E0
1.435001094E1,-3.160346150E-1,-9.481038451E-1,9.701305389E0
1.437500781E1,-3.830722570E-1,-9.097966552E-1,9.777919769E0
1.440000313E1,-4.022258818E-1,-9.289502501E-1,9.797073364E0
1.442500000E1,-2.394201756E-1,-9.289502501E-1,9.806650162E0
1.444999688E1,-1.149216816E-1,-9.193734527E-1,9.749189377E0
1.447499375E1,-2.968810201E-1,-1.034295082E0,9.739612579E0
1.449501562E1,-3.830722570E-1,-1.043871999E0,9.777919769E0
1.452001094E1,-3.256114423E-1,-8.906430602E-1,9.787496567E0
1.454500781E1,-2.489969730E-1,-8.236053586E-1,9.758766174E0
1.457000469E1,-1.915361285E-1,-8.140285611E-1,9.749189377E0
1.459500156E1,-2.585737705E-1,-8.236053586E-1,9.854534149E0
1.461999688E1,-3.256114423E-1,-7.948749661E-1,9.844957352E0
1.464499375E1,-3.256114423E-1,-8.427590132E-1,9.758766174E0
1.466998906E1,-3.256114423E-1,-8.619126081E-1,9.682151794E0
1.469001250E1,-4.213795066E-1,-9.864110947E-1,9.691728592E0
1.471500938E1,-4.309563041E-1,-1.024718285E0,9.710882187E0
1.474000469E1,-3.734954596E-1,-1.005564690E0,9.739612579E0
1.476500313E1,-3.160346150E-1,-1.015141487E0,9.758766174E0
1.478999844E1,-1.244984865E-1,-9.097966552E-1,9.911994934E0
1.481499531E1,5.746084079E-2,-7.565677166E-1,9.883264542E0
1.483999219E1,0.000000000E0,-7.948749661E-1,9.768342972E0
1.486001250E1,-1.532289088E-1,-9.385270476E-1,9.691728592E0
1.488501094E1,-3.256114423E-1,-9.481038451E-1,9.720458984E0
1.491000625E1,-3.639186621E-1,-8.810662031E-1,9.758766174E0
1.493504063E1,-2.968810201E-1,-9.385270476E-1,9.758766174E0
1.495999844E1,-2.777273953E-1,-9.768342972E-1,9.787496567E0
1.498499688E1,-2.777273953E-1,-9.481038451E-1,9.777919769E0
1.500999219E1,-2.777273953E-1,-8.810662031E-1,9.720458984E0
1.503001406E1,-2.681505978E-1,-8.619126081E-1,9.739612579E0
1.505501094E1,-2.777273953E-1,-8.619126081E-1,9.739612579E0
1.508000781E1,-2.681505978E-1,-8.619126081E-1,9.758766174E0
1.510500469E1,-2.777273953E-1,-9.193734527E-1,9.768342972E0
1.513000000E1,-2.489969730E-1,-9.672574997E-1,9.797073364E0
1.515499688E1,-2.011129409E-1,-9.864110947E-1,9.758766174E0
1.517999375E1,-2.202665508E-1,-9.289502501E-1,9.758766174E0
1.520001562E1,-2.298433632E-1,-9.481038451E-1,9.739612579E0
1.522501250E1,-2.585737705E-1,-9.672574997E-1,9.768342972E0
1.525000938E1,-2.489969730E-1,-8.810662031E-1,9.797073364E0
1.527500469E1,-2.968810201E-1,-8.140285611E-1,9.806650162E0
1.530000156E1,-2.968810201E-1,-7.661445141E-1,9.787496567E0
1.532499844E1,-2.394201756E-1,-7.469909191E-1,9.777919769E0
1.534999375E1,-2.011129409E-1,-7.469909191E-1,9.787496567E0
1.537499062E1,-2.298433632E-1,-8.236053586E-1,9.768342972E0
1.539501406E1,-2.394201756E-1,-9.864110947E-1,9.777919769E0
1.541504844E1,-2.394201756E-1,-1.063025594E0,9.749189377E0
1.544000000E1,-1.915361285E-1,-9.481038451E-1,9.730035782E0
1.546499688E1,-2.011129409E-1,-7.852981687E-1,9.730035782E0
1.548999375E1,-2.968810201E-1,-8.044517636E-1,9.768342972E0
1.551001563E1,-3.256114423E-1,-9.672574997E-1,9.835380554E0
1.553501250E1,-2.873041928E-1,-9.864110947E-1,9.911994934E0
1.556000938E1,-3.064578176E-1,-8.427590132E-1,9.816226959E0
1.558500625E1,-3.256114423E-1,-8.331822157E-1,9.672574997E0
1.561000156E1,-2.681505978E-1,-9.576807022E-1,9.701305389E0
1.563499844E1,-2.202665508E-1,-9.768342972E-1,9.777919769E0
1.565999375E1,-2.681505978E-1,-8.906430602E-1,9.787496567E0
1.568499219E1,-3.160346150E-1,-7.852981687E-1,9.797073364E0
1.570501406E1,-2.873041928E-1,-8.331822157E-1,9.873687744E0
1.573000938E1,-3.064578176E-1,-8.714894056E-1,1.012268448E1
1.575500625E1,-4.022258818E-1,-8.906430602E-1,1.008437729E1
1.578000312E1,-5.171475410E-1,-9.097966552E-1,9.557653427E0
1.580500000E1,-4.118026793E-1,-9.193734527E-1,9.126696587E0
1.582999531E1,-4.309563041E-1,-8.140285611E-1,9.299078941E0
1.585499375E1,-4.501099288E-1,-7.757213712E-1,9.758766174E0
1.587501406E1,-4.596867263E-1,-8.044517636E-1,1.010353088E1
1.590001094E1,-2.394201756E-1,-7.374141216E-1,1.006522369E1
1.592500781E1,-4.788403213E-2,-7.374141216E-1,9.749189377E0
1.595000312E1,-9.576806799E-3,-8.523358107E-1,9.567230225E0
1.597504531E1,-5.746084079E-2,-1.043871999E0,9.624691010E0
1.599999688E1,-9.576806799E-3,-1.149216771E0,9.921571732E0
1.602499375E1,-1.340752989E-1,-1.024718285E0,1.010353088E1
1.604501562E1,-2.585737705E-1,-8.331822157E-1,9.998186111E0
1.607001094E1,-2.394201756E-1,-6.224924326E-1,9.749189377E0
1.609500781E1,-2.298433632E-1,-5.650315881E-1,9.730035782E0
1.612000469E1,-2.873041928E-1,-6.799532771E-1,9.691728592E0
1.614500156E1,-4.596867263E-1,-7.757213712E-1,9.682151794E0
1.616999688E1,-5.937620401E-1,-8.810662031E-1,9.701305389E0
1.619499375E1,-5.746083856E-1,-9.576807022E-1,9.615114212E0
1.621999062E1,-4.501099288E-1,-1.015141487E0,9.643844604E0
1.624001250E1,-2.968810201E-1,-1.034295082E0,9.806650162E0
1.626500938E1,-1.723825186E-1,-1.034295082E0,9.931148529E0
1.629000625E1,-6.703764945E-2,-9.864110947E-1,9.921571732E0
1.631502188E1,4.788403213E-2,-9.193734527E-1,9.864110947E0
1.633999844E1,8.619125932E-2,-8.906430602E-1,9.662998199E0
1.636499844E1,0.000000000E0,-9.097966552E-1,9.605537415E0
1.638999219E1,-9.576806426E-2,-8.523358107E-1,9.730035782E0
1.641001406E1,-1.915361285E-1,-7.852981687E-1,9.892841339E0
1.643501250E1,-2.873041928E-1,-7.661445141E-1,9.921571732E0
1.645501562E1,-3.543418646E-1,-7.948749661E-1,9.911994934E0
1.647999844E1,-3.639186621E-1,-8.714894056E-1,9.835380554E0
1.650499531E1,-3.543418646E-1,-8.810662031E-1,9.720458984E0
1.652999062E1,-3.926490843E-1,-9.002198577E-1,9.653421402E0
1.655001250E1,-4.309563041E-1,-9.289502501E-1,9.662998199E0
1.657501719E1,-4.022258818E-1,-9.289502501E-1,9.720458984E0
1.660000625E1,-3.639186621E-1,-8.906430602E-1,9.777919769E0
1.662500313E1,-2.489969730E-1,-8.714894056E-1,9.806650162E0
1.664999844E1,-1.532289088E-1,-8.810662031E-1,9.806650162E0
1.667499688E1,-1.244984865E-1,-8.810662031E-1,9.825803757E0
1.669501250E1,-1.149216816E-1,-8.619126081E-1,9.816226959E0
1.671501719E1,-1.244984865E-1,-8.810662031E-1,9.758766174E0
1.674000469E1,-9.576806426E-2,-9.097966552E-1,9.787496567E0
1.676500156E1,-1.819593310E-1,-9.002198577E-1,9.806650162E0
1.678999844E1,-1.819593310E-1,-8.427590132E-1,9.777919769E0
1.681502031E1,-2.202665508E-1,-8.906430602E-1,9.730035782E0
1.683999219E1,-2.777273953E-1,-9.097966552E-1,9.777919769E0
1.686001250E1,-3.734954596E-1,-9.002198577E-1,9.730035782E0
1.688501094E1,-4.405331016E-1,-9.002198577E-1,9.691728592E0
1.690503281E1,-4.596867263E-1,-9.193734527E-1,9.691728592E0
1.692999688E1,-4.405331016E-1,-9.289502501E-1,9.720458984E0
1.695499375E1,-3.830722570E-1,-9.002198577E-1,9.710882187E0
1.697501562E1,-3.256114423E-1,-9.097966552E-1,9.739612579E0
1.700001250E1,-2.489969730E-1,-9.002198577E-1,9.777919769E0
1.702500938E1,-2.298433632E-1,-8.810662031E-1,9.816226959E0
1.705000469E1,-2.011129409E-1,-8.810662031E-1,9.797073364E0
1.707500156E1,-1.819593310E-1,-9.097966552E-1,9.777919769E0
1.709999844E1,-1.723825186E-1,-9.097966552E-1,9.777919769E0
1.712499531E1,-1.532289088E-1,-9.481038451E-1,9.797073364E0
1.714999062E1,-2.489969730E-1,-9.097966552E-1,9.777919769E0
1.717001406E1,-2.394201756E-1,-8.619126081E-1,9.777919769E0
1.719501094E1,-3.160346150E-1,-8.044517636E-1,9.758766174E0
1.722000625E1,-3.734954596E-1,-8.619126081E-1,9.730035782E0
1.724500312E1,-3.830722570E-1,-9.385270476E-1,9.710882187E0
1.726999844E1,-3.543418646E-1,-9.768342972E-1,9.710882187E0
1.729499531E1,-3.351882398E-1,-9.576807022E-1,9.720458984E0
1.731999219E1,-2.777273953E-1,-9.289502501E-1,9.768342972E0
1.734001406E1,-2.106897533E-1,-8.714894056E-1,9.777919769E0
1.736503594E1,-1.915361285E-1,-8.427590132E-1,9.787496567E0
1.739000781E1,-2.394201756E-1,-8.140285611E-1,9.806650162E0
1.741502813E1,-2.873041928E-1,-8.523358107E-1,9.797073364E0
1.743503438E1,-2.968810201E-1,-9.097966552E-1,9.758766174E0
1.745999062E1,-2.777273953E-1,-9.289502501E-1,9.710882187E0
1.748001406E1,-2.585737705E-1,-9.672574997E-1,9.730035782E0
1.750501094E1,-2.681505978E-1,-9.002198577E-1,9.777919769E0
1.753000625E1,-2.873041928E-1,-8.714894056E-1,9.787496567E0
1.755500313E1,-3.351882398E-1,-9.097966552E-1,9.787496567E0
1.757999844E1,-3.351882398E-1,-8.906430602E-1,9.787496567E0
1.760499531E1,-2.777273953E-1,-8.140285611E-1,9.758766174E0
1.762999219E1,-2.585737705E-1,-8.140285611E-1,9.720458984E0
1.765001406E1,-2.777273953E-1,-8.906430602E-1,9.730035782E0
1.767501094E1,-2.873041928E-1,-9.576807022E-1,9.768342972E0
1.770000781E1,-2.489969730E-1,-9.576807022E-1,9.816226959E0
1.772500469E1,-2.489969730E-1,-9.289502501E-1,9.787496567E0
1.775000000E1,-2.394201756E-1,-9.576807022E-1,9.758766174E0
1.777499531E1,-2.777273953E-1,-8.906430602E-1,9.768342972E0
1.779999375E1,-2.968810201E-1,-8.523358107E-1,9.768342972E0
1.782001562E1,-2.968810201E-1,-8.714894056E-1,9.777919769E0
1.784501406E1,-3.064578176E-1,-8.619126081E-1,9.749189377E0
1.787000781E1,-2.489969730E-1,-8.810662031E-1,9.720458984E0
1.789500469E1,-2.489969730E-1,-8.619126081E-1,9.749189377E0
1.791501406E1,-3.064578176E-1,-8.714894056E-1,9.797073364E0
1.793999219E1,-2.968810201E-1,-8.906430602E-1,9.844957352E0
1.796001406E1,-2.968810201E-1,-9.097966552E-1,9.806650162E0
1.798501094E1,-2.489969730E-1,-9.097966552E-1,9.768342972E0
1.801000781E1,-2.585737705E-1,-9.193734527E-1,9.720458984E0
1.803500469E1,-2.681505978E-1,-9.002198577E-1,9.758766174E0
1.806000000E1,-2.873041928E-1,-9.002198577E-1,9.768342972E0
1.808499688E1,-2.873041928E-1,-8.714894056E-1,9.797073364E0
1.810999375E1,-2.873041928E-1,-8.619126081E-1,9.787496567E0
1.813001563E1,-2.681505978E-1,-8.810662031E-1,9.758766174E0
1.815501250E1,-2.585737705E-1,-9.193734527E-1,9.768342972E0
1.818000781E1,-2.489969730E-1,-9.193734527E-1,9.816226959E0
1.820500625E1,-2.585737705E-1,-8.523358107E-1,9.797073364E0
1.823000156E1,-2.489969730E-1,-8.140285611E-1,9.825803757E0
1.825499688E1,-2.298433632E-1,-8.619126081E-1,9.768342972E0
1.827999375E1,-2.489969730E-1,-9.097966552E-1,9.739612579E0
1.830499063E1,-2.681505978E-1,-9.289502501E-1,9.749189377E0
1.832501406E1,-3.160346150E-1,-9.289502501E-1,9.739612579E0
1.835001094E1,-3.064578176E-1,-8.906430602E-1,9.768342972E0
1.837501875E1,-2.873041928E-1,-8.619126081E-1,9.777919769E0
1.840000312E1,-2.585737705E-1,-8.714894056E-1,9.768342972E0
1.842499844E1,-2.298433632E-1,-8.714894056E-1,9.777919769E0
1.844999531E1,-2.585737705E-1,-8.523358107E-1,9.758766174E0
1.847499219E1,-2.585737705E-1,-8.523358107E-1,9.777919769E0
1.849501406E1,-2.585737705E-1,-8.906430602E-1,9.777919769E0
1.852001094E1,-2.489969730E-1,-8.906430602E-1,9.777919769E0
1.854500781E1,-2.585737705E-1,-9.097966552E-1,9.797073364E0
1.857000312E1,-2.681505978E-1,-9.193734527E-1,9.806650162E0
1.859500000E1,-3.064578176E-1,-9.002198577E-1,9.758766174E0
1.861500469E1,-3.160346150E-1,-9.002198577E-1,9.768342972E0
1.863501562E1,-2.968810201E-1,-8.906430602E-1,9.758766174E0
1.866000938E1,-2.968810201E-1,-8.810662031E-1,9.758766174E0
1.868500625E1,-2.681505978E-1,-8.810662031E-1,9.777919769E0
1.871000312E1,-2.681505978E-1,-8.810662031E-1,9.787496567E0
1.873499844E1,-2.585737705E-1,-8.810662031E-1,9.787496567E0
1.875999531E1,-2.489969730E-1,-9.002198577E-1,9.797073364E0
1.878499219E1,-2.681505978E-1,-8.906430602E-1,9.787496567E0
1.880501406E1,-2.585737705E-1,-9.097966552E-1,9.768342972E0
1.883001094E1,-2.585737705E-1,-9.002198577E-1,9.797073364E0
1.885500625E1,-2.777273953E-1,-8.906430602E-1,9.777919769E0
1.888000312E1,-2.968810201E-1,-9.002198577E-1,9.777919769E0
1.890500000E1,-3.064578176E-1,-8.810662031E-1,9.787496567E0
1.892999688E1,-2.968810201E-1,-8.810662031E-1,9.787496567E0
1.895499375E1,-2.873041928E-1,-8.810662031E-1,9.768342972E0
1.897502188E1,-2.777273953E-1,-8.906430602E-1,9.768342972E0
1.900001250E1,-2.777273953E-1,-8.906430602E-1,9.777919769E0
1.902500938E1,-2.585737705E-1,-8.906430602E-1,9.768342972E0
1.905000469E1,-2.489969730E-1,-8.906430602E-1,9.787496567E0
1.907500156E1,-2.489969730E-1,-9.097966552E-1,9.777919769E0
1.909999688E1,-2.681505978E-1,-8.810662031E-1,9.787496567E0
1.912499375E1,-2.681505978E-1,-8.906430602E-1,9.768342972E0
1.914999062E1,-2.681505978E-1,-8.906430602E-1,9.768342972E0
1.917001250E1,-2.681505978E-1,-8.810662031E-1,9.768342972E0
1.919500938E1,-2.777273953E-1,-9.002198577E-1,9.758766174E0
1.921503906E1,-2.777273953E-1,-8.810662031E-1,9.797073364E0
1.923999688E1,-2.777273953E-1,-8.714894056E-1,9.768342972E0
1.926499375E1,-2.681505978E-1,-8.810662031E-1,9.758766174E0
1.928501562E1,-2.873041928E-1,-9.193734527E-1,9.797073364E0
1.931001250E1,-2.873041928E-1,-8.906430602E-1,9.787496567E0
1.933500938E1,-2.585737705E-1,-8.140285611E-1,9.787496567E0
1.935502188E1,-2.489969730E-1,-8.140285611E-1,9.854534149E0
1.937999531E1,-2.681505978E-1,-8.714894056E-1,9.758766174E0
1.940499219E1,-2.681505978E-1,-9.097966552E-1,9.739612579E0
1.942501562E1,-2.489969730E-1,-9.002198577E-1,9.768342972E0
1.945001094E1,-2.681505978E-1,-9.193734527E-1,9.758766174E0
1.947500781E1,-2.873041928E-1,-9.481038451E-1,9.739612579E0
1.950000469E1,-2.585737705E-1,-9.002198577E-1,9.758766174E0
1.952500000E1,-2.394201756E-1,-8.906430602E-1,9.730035782E0
1.954999688E1,-3.256114423E-1,-9.193734527E-1,9.730035782E0
1.957502656E1,-3.447650373E-1,-9.097966552E-1,9.806650162E0
1.959998906E1,-2.585737705E-1,-8.523358107E-1,9.758766174E0
1.962001250E1,-2.202665508E-1,-8.331822157E-1,9.720458984E0
1.964500938E1,-2.489969730E-1,-8.714894056E-1,9.720458984E0
1.967000469E1,-3.160346150E-1,-9.289502501E-1,9.825803757E0
1.969501250E1,-2.777273953E-1,-8.619126081E-1,9.835380554E0
1.971999688E1,-2.585737705E-1,-8.523358107E-1,9.768342972E0
1.974499531E1,-2.585737705E-1,-9.385270476E-1,9.720458984E0
1.976999063E1,-2.585737705E-1,-9.385270476E-1,9.758766174E0
1.979001250E1,-2.298433632E-1,-9.193734527E-1,9.739612579E0
1.981504219E1,-2.681505978E-1,-8.810662031E-1,9.758766174E0
1.984000625E1,-2.968810201E-1,-8.810662031E-1,9.749189377E0
1.986500312E1,-3.160346150E-1,-8.810662031E-1,9.758766174E0
1.988999844E1,-2.968810201E-1,-8.906430602E-1,9.787496567E0
1.991499531E1,-2.298433632E-1,-9.002198577E-1,9.777919769E0
1.993999219E1,-2.011129409E-1,-9.002198577E-1,9.739612579E0
1.996001406E1,-2.777273953E-1,-9.193734527E-1,9.720458984E0
1.998501094E1,-2.777273953E-1,-8.906430602E-1,9.720458984E0
2.001000781E1,-2.968810201E-1,-8.619126081E-1,9.749189377E0
2.003500313E1,-2.585737705E-1,-9.002198577E-1,9.777919769E0
2.005502500E1,-2.681505978E-1,-9.097966552E-1,9.768342972E0
2.007999219E1,-2.873041928E-1,-8.906430602E-1,9.787496567E0
2.010001250E1,-2.681505978E-1,-8.906430602E-1,9.768342972E0
2.012501094E1,-2.777273953E-1,-8.906430602E-1,9.739612579E0
2.015000625E1,-2.681505978E-1,-9.002198577E-1,9.730035782E0
2.017500312E1,-2.681505978E-1,-9.002198577E-1,9.749189377E0
2.019999844E1,-2.681505978E-1,-8.906430602E-1,9.758766174E0
2.022499531E1,-2.585737705E-1,-8.810662031E-1,9.739612579E0
2.024999219E1,-2.681505978E-1,-9.002198577E-1,9.777919769E0
2.027001406E1,-2.585737705E-1,-8.810662031E-1,9.768342972E0
2.029501094E1,-2.777273953E-1,-9.002198577E-1,9.758766174E0
2.032000625E1,-2.873041928E-1,-9.002198577E-1,9.758766174E0
2.034500469E1,-2.681505978E-1,-8.810662031E-1,9.730035782E0
2.037000000E1,-2.777273953E-1,-9.097966552E-1,9.758766174E0
2.039499688E1,-2.681505978E-1,-9.193734527E-1,9.777919769E0
2.041501719E1,-2.585737705E-1,-8.523358107E-1,9.787496567E0
2.044001562E1,-2.585737705E-1,-8.140285611E-1,9.787496567E0
2.046501563E1,-2.489969730E-1,-8.810662031E-1,9.739612579E0
2.049000781E1,-2.777273953E-1,-9.193734527E-1,9.758766174E0
2.051500469E1,-2.489969730E-1,-9.289502501E-1,9.749189377E0
2.054000156E1,-2.873041928E-1,-9.097966552E-1,9.758766174E0
2.056499844E1,-2.681505978E-1,-8.714894056E-1,9.749189377E0
2.058999375E1,-2.585737705E-1,-8.906430602E-1,9.768342972E0
2.061499062E1,-2.585737705E-1,-8.714894056E-1,9.749189377E0
2.063501406E1,-2.298433632E-1,-8.714894056E-1,9.749189377E0
2.066000938E1,-2.681505978E-1,-8.714894056E-1,9.730035782E0
2.068500625E1,-2.585737705E-1,-8.906430602E-1,9.758766174E0
2.071000312E1,-2.681505978E-1,-9.002198577E-1,9.768342972E0
2.073500313E1,-2.777273953E-1,-8.810662031E-1,9.758766174E0
2.075999531E1,-2.873041928E-1,-9.002198577E-1,9.777919769E0
2.078499219E1,-2.777273953E-1,-9.193734527E-1,9.768342972E0
2.080501406E1,-2.873041928E-1,-9.002198577E-1,9.758766174E0
2.083001094E1,-2.681505978E-1,-8.906430602E-1,9.739612579E0
2.085500625E1,-2.585737705E-1,-8.619126081E-1,9.758766174E0
2.088000312E1,-2.777273953E-1,-9.002198577E-1,9.758766174E0
2.090500156E1,-2.585737705E-1,-8.906430602E-1,9.777919769E0
2.092999688E1,-2.681505978E-1,-8.619126081E-1,9.768342972E0
2.095499375E1,-2.585737705E-1,-8.810662031E-1,9.758766174E0
2.097501562E1,-2.681505978E-1,-8.810662031E-1,9.749189377E0
2.100001094E1,-2.585737705E-1,-8.906430602E-1,9.787496567E0
2.102500938E1,-2.489969730E-1,-9.002198577E-1,9.730035782E0
2.105000469E1,-2.489969730E-1,-8.714894056E-1,9.758766174E0
2.107500156E1,-2.777273953E-1,-8.714894056E-1,9.758766174E0
2.109999688E1,-2.681505978E-1,-8.906430602E-1,9.777919769E0
2.112499531E1,-2.968810201E-1,-8.714894056E-1,9.758766174E0
2.114999062E1,-2.873041928E-1,-8.810662031E-1,9.758766174E0
2.117001250E1,-2.585737705E-1,-8.810662031E-1,9.749189377E0
2.119500938E1,-2.681505978E-1,-8.906430602E-1,9.749189377E0
2.122000625E1,-2.681505978E-1,-8.906430602E-1,9.777919769E0
2.124500156E1,-2.777273953E-1,-8.810662031E-1,9.768342972E0
2.126999688E1,-2.777273953E-1,-8.906430602E-1,9.758766174E0
2.129499531E1,-2.489969730E-1,-8.906430602E-1,9.749189377E0
2.131999063E1,-2.681505978E-1,-8.810662031E-1,9.758766174E0
2.134001406E1,-2.873041928E-1,-9.097966552E-1,9.758766174E0
2.136501094E1,-2.681505978E-1,-9.002198577E-1,9.758766174E0
2.139000625E1,-2.585737705E-1,-8.714894056E-1,9.768342972E0
2.141500313E1,-2.873041928E-1,-9.002198577E-1,9.739612579E0
2.143501719E1,-2.968810201E-1,-9.385270476E-1,9.768342972E0
2.145998906E1,-2.681505978E-1,-8.906430602E-1,9.758766174E0
2.148001250E1,-2.585737705E-1,-8.619126081E-1,9.777919769E0
2.150500938E1,-2.585737705E-1,-8.523358107E-1,9.787496567E0
2.153000625E1,-2.489969730E-1,-8.906430602E-1,9.758766174E0
2.155500313E1,-2.585737705E-1,-8.906430602E-1,9.720458984E0
2.157999844E1,-2.681505978E-1,-9.289502501E-1,9.768342972E0
2.160499531E1,-3.064578176E-1,-9.193734527E-1,9.749189377E0
2.162999062E1,-2.777273953E-1,-8.714894056E-1,9.758766174E0
2.165001406E1,-2.777273953E-1,-8.906430602E-1,9.797073364E0
2.167501094E1,-2.394201756E-1,-8.619126081E-1,9.749189377E0
2.170000625E1,-2.489969730E-1,-8.810662031E-1,9.730035782E0
2.172500312E1,-2.681505978E-1,-8.714894056E-1,9.777919769E0
2.174999844E1,-2.681505978E-1,-8.810662031E-1,9.768342972E0
2.177499688E1,-2.873041928E-1,-8.906430602E-1,9.749189377E0
2.179999219E1,-2.777273953E-1,-8.906430602E-1,9.777919769E0
2.182001406E1,-2.489969730E-1,-9.002198577E-1,9.806650162E0
2.184501875E1,-2.681505978E-1,-9.002198577E-1,9.777919769E0
2.187000781E1,-2.777273953E-1,-8.906430602E-1,9.777919769E0
2.189500469E1,-2.777273953E-1,-8.810662031E-1,9.768342972E0
2.192000000E1,-2.968810201E-1,-9.002198577E-1,9.758766174E0
2.194499688E1,-2.873041928E-1,-8.810662031E-1,9.777919769E0
2.196999375E1,-2.585737705E-1,-9.002198577E-1,9.777919769E0
2.199499062E1,-2.968810201E-1,-8.810662031E-1,9.768342972E0
2.201501250E1,-2.489969730E-1,-8.810662031E-1,9.758766174E0
2.204000938E1,-2.585737705E-1,-9.097966552E-1,9.758766174E0
2.206500625E1,-2.873041928E-1,-8.810662031E-1,9.758766174E0
2.209000156E1,-2.585737705E-1,-9.002198577E-1,9.749189377E0
2.211499844E1,-2.681505978E-1,-9.097966552E-1,9.758766174E0
2.213999375E1,-2.777273953E-1,-8.714894056E-1,9.758766174E0
2.216499219E1,-2.777273953E-1,-8.906430602E-1,9.768342972E0
2.218501406E1,-2.777273953E-1,-8.810662031E-1,9.768342972E0
2.221000938E1,-2.777273953E-1,-9.002198577E-1,9.768342972E0
2.223500625E1,-2.681505978E-1,-8.906430602E-1,9.777919769E0
2.226000312E1,-2.489969730E-1,-9.002198577E-1,9.768342972E0
2.228500000E1,-2.585737705E-1,-8.714894056E-1,9.768342972E0
2.230999531E1,-2.585737705E-1,-8.714894056E-1,9.787496567E0
2.233499219E1,-2.489969730E-1,-8.906430602E-1,9.768342972E0
2.235501406E1,-2.394201756E-1,-9.002198577E-1,9.749189377E0
2.238001094E1,-2.777273953E-1,-8.810662031E-1,9.787496567E0
2.240500781E1,-2.681505978E-1,-9.002198577E-1,9.758766174E0
2.243000469E1,-2.873041928E-1,-8.810662031E-1,9.768342972E0
2.245500156E1,-2.681505978E-1,-8.714894056E-1,9.758766174E0
2.247999688E1,-2.968810201E-1,-9.002198577E-1,9.768342972E0
2.250499375E1,-2.681505978E-1,-8.714894056E-1,9.768342972E0
2.252501719E1,-2.585737705E-1,-8.714894056E-1,9.758766174E0
2.255001250E1,-2.777273953E-1,-9.193734527E-1,9.758766174E0
2.257500938E1,-2.681505978E-1,-9.193734527E-1,9.777919769E0
2.260000469E1,-2.585737705E-1,-8.810662031E-1,9.777919769E0
2.262500156E1,-2.681505978E-1,-8.427590132E-1,9.739612579E0
2.264999688E1,-2.489969730E-1,-8.523358107E-1,9.797073364E0
2.267499531E1,-2.681505978E-1,-8.810662031E-1,9.758766174E0
2.269999062E1,-2.585737705E-1,-9.002198577E-1,9.758766174E0
2.272001250E1,-2.968810201E-1,-9.289502501E-1,9.758766174E0
2.274501094E1,-3.064578176E-1,-8.906430602E-1,9.758766174E0
2.277000625E1,-2.585737705E-1,-8.714894056E-1,9.777919769E0
2.279500312E1,-2.873041928E-1,-8.619126081E-1,9.777919769E0
2.281502188E1,-2.585737705E-1,-8.523358107E-1,9.739612579E0
2.283999063E1,-2.681505978E-1,-8.714894056E-1,9.768342972E0
2.286001250E1,-2.681505978E-1,-8.714894056E-1,9.768342972E0
2.288500938E1,-2.681505978E-1,-8.810662031E-1,9.777919769E0
2.291000469E1,-2.681505978E-1,-8.810662031E-1,9.777919769E0
2.293500156E1,-2.585737705E-1,-8.810662031E-1,9.768342972E0
2.295999844E1,-2.681505978E-1,-9.002198577E-1,9.749189377E0
2.298499531E1,-2.777273953E-1,-9.193734527E-1,9.758766174E0
2.300999062E1,-2.873041928E-1,-8.906430602E-1,9.758766174E0
2.303001406E1,-3.064578176E-1,-8.810662031E-1,9.758766174E0
2.305501094E1,-2.873041928E-1,-8.714894056E-1,9.777919769E0
2.308000625E1,-2.777273953E-1,-9.002198577E-1,9.797073364E0
2.310500313E1,-2.585737705E-1,-8.714894056E-1,9.768342972E0
2.312999844E1,-2.681505978E-1,-9.002198577E-1,9.768342972E0
2.315499688E1,-2.585737705E-1,-9.002198577E-1,9.797073364E0
2.317999219E1,-2.585737705E-1,-8.906430602E-1,9.768342972E0
2.320001406E1,-2.489969730E-1,-9.097966552E-1,9.758766174E0
2.322501094E1,-2.489969730E-1,-9.002198577E-1,9.768342972E0
2.325000625E1,-2.777273953E-1,-8.810662031E-1,9.768342972E0
2.327500469E1,-2.873041928E-1,-8.714894056E-1,9.787496567E0
2.330000000E1,-2.681505978E-1,-8.714894056E-1,9.768342972E0
2.332499688E1,-2.968810201E-1,-8.906430602E-1,9.777919769E0
2.334999375E1,-2.681505978E-1,-8.810662031E-1,9.768342972E0
2.337001562E1,-2.777273953E-1,-8.714894056E-1,9.768342972E0
2.339501250E1,-2.489969730E-1,-8.810662031E-1,9.768342972E0
2.341503750E1,-2.489969730E-1,-8.906430602E-1,9.777919769E0
2.343999844E1,-2.681505978E-1,-8.714894056E-1,9.758766174E0
2.346499688E1,-2.777273953E-1,-8.810662031E-1,9.777919769E0
2.348999219E1,-2.585737705E-1,-8.906430602E-1,9.768342972E0
2.351001406E1,-2.777273953E-1,-8.810662031E-1,9.758766174E0
2.353501250E1,-2.585737705E-1,-8.906430602E-1,9.787496567E0
2.356000625E1,-2.681505978E-1,-8.523358107E-1,9.777919769E0
2.358500469E1,-2.777273953E-1,-8.810662031E-1,9.768342972E0
2.361000000E1,-2.777273953E-1,-9.002198577E-1,9.758766174E0
2.363500000E1,-2.777273953E-1,-8.619126081E-1,9.777919769E0
2.365999375E1,-2.681505978E-1,-8.810662031E-1,9.758766174E0
2.368001563E1,-2.777273953E-1,-9.193734527E-1,9.720458984E0
2.370501250E1,-2.777273953E-1,-8.906430602E-1,9.787496567E0
2.373000781E1,-2.489969730E-1,-8.523358107E-1,9.777919769E0
2.375500469E1,-2.585737705E-1,-8.236053586E-1,9.768342972E0
2.378000156E1,-2.777273953E-1,-9.002198577E-1,9.758766174E0
2.380500625E1,-2.489969730E-1,-9.193734527E-1,9.777919769E0
2.382999375E1,-2.681505978E-1,-9.002198577E-1,9.739612579E0
2.385499219E1,-3.064578176E-1,-8.906430602E-1,9.758766174E0
2.387501406E1,-2.873041928E-1,-8.714894056E-1,9.739612579E0
2.390000938E1,-2.585737705E-1,-8.619126081E-1,9.777919769E0
2.392500625E1,-2.489969730E-1,-8.427590132E-1,9.768342972E0
2.395000313E1,-2.489969730E-1,-8.906430602E-1,9.758766174E0
2.397500000E1,-2.681505978E-1,-8.810662031E-1,9.787496567E0
2.399999531E1,-2.873041928E-1,-8.714894056E-1,9.758766174E0
2.402499219E1,-2.681505978E-1,-8.810662031E-1,9.777919769E0
2.404501562E1,-2.585737705E-1,-8.810662031E-1,9.787496567E0
2.407001094E1,-2.298433632E-1,-8.906430602E-1,9.758766174E0
2.409500781E1,-2.585737705E-1,-9.002198577E-1,9.749189377E0
2.412000312E1,-2.777273953E-1,-9.002198577E-1,9.787496567E0
2.414500000E1,-2.873041928E-1,-8.906430602E-1,9.758766174E0
2.416999531E1,-2.968810201E-1,-8.714894056E-1,9.749189377E0
2.419499375E1,-2.681505978E-1,-8.714894056E-1,9.768342972E0
2.421501563E1,-2.681505978E-1,-8.714894056E-1,9.787496567E0
2.423501875E1,-2.681505978E-1,-8.714894056E-1,9.768342972E0
2.426000312E1,-2.585737705E-1,-8.619126081E-1,9.777919769E0
2.428500000E1,-2.489969730E-1,-8.810662031E-1,9.768342972E0
2.430999531E1,-2.585737705E-1,-8.810662031E-1,9.768342972E0
2.433499219E1,-2.873041928E-1,-8.714894056E-1,9.758766174E0
2.435501562E1,-2.681505978E-1,-8.906430602E-1,9.758766174E0
2.437503438E1,-2.777273953E-1,-8.619126081E-1,9.777919769E0
2.440000156E1,-2.681505978E-1,-8.810662031E-1,9.758766174E0
2.442499844E1,-2.777273953E-1,-8.810662031E-1,9.739612579E0
2.444999375E1,-2.968810201E-1,-8.906430602E-1,9.730035782E0
2.447499219E1,-2.777273953E-1,-9.002198577E-1,9.758766174E0
2.449501562E1,-2.585737705E-1,-8.906430602E-1,9.768342972E0
2.452000938E1,-2.394201756E-1,-8.906430602E-1,9.777919769E0
2.454500625E1,-2.585737705E-1,-8.810662031E-1,9.749189377E0
2.457000313E1,-2.777273953E-1,-8.906430602E-1,9.777919769E0
2.459500000E1,-2.585737705E-1,-8.906430602E-1,9.758766174E0
2.461501875E1,-2.585737705E-1,-8.906430602E-1,9.777919769E0
2.463503594E1,-2.585737705E-1,-8.906430602E-1,9.758766174E0
2.466000938E1,-2.585737705E-1,-8.714894056E-1,9.758766174E0
2.468500625E1,-2.968810201E-1,-8.810662031E-1,9.758766174E0
2.471000156E1,-2.777273953E-1,-8.427590132E-1,9.749189377E0
2.473500000E1,-2.585737705E-1,-8.714894056E-1,9.739612579E0
2.475999375E1,-2.873041928E-1,-9.193734527E-1,9.758766174E0
2.478499219E1,-2.681505978E-1,-9.097966552E-1,9.787496567E0
2.480501406E1,-2.681505978E-1,-8.619126081E-1,9.758766174E0
2.483000938E1,-2.585737705E-1,-8.236053586E-1,9.749189377E0
2.485502031E1,-2.585737705E-1,-8.523358107E-1,9.749189377E0
2.488000312E1,-2.585737705E-1,-9.002198577E-1,9.758766174E0
2.490499844E1,-2.777273953E-1,-9.193734527E-1,9.768342972E0
2.492999531E1,-2.681505978E-1,-8.906430602E-1,9.739612579E0
2.495499219E1,-2.873041928E-1,-8.810662031E-1,9.768342972E0
2.497501406E1,-2.585737705E-1,-8.523358107E-1,9.806650162E0
2.500001094E1,-2.489969730E-1,-8.427590132E-1,9.749189377E0
2.502500781E1,-2.585737705E-1,-8.523358107E-1,9.739612579E0
2.505000312E1,-2.585737705E-1,-8.906430602E-1,9.777919769E0
2.507500000E1,-2.585737705E-1,-8.810662031E-1,9.758766174E0
2.509999531E1,-2.777273953E-1,-8.810662031E-1,9.768342972E0
2.512499375E1,-2.585737705E-1,-8.714894056E-1,9.749189377E0
2.514501563E1,-2.585737705E-1,-8.906430602E-1,9.749189377E0
2.517001250E1,-2.489969730E-1,-9.002198577E-1,9.730035782E0
2.519500938E1,-2.681505978E-1,-9.097966552E-1,9.758766174E0
2.522000469E1,-2.777273953E-1,-8.906430602E-1,9.749189377E0
2.524500156E1,-2.873041928E-1,-8.810662031E-1,9.777919769E0
2.526999688E1,-2.873041928E-1,-8.619126081E-1,9.739612579E0
2.529499531E1,-2.681505978E-1,-8.619126081E-1,9.768342972E0
2.531999063E1,-2.777273953E-1,-8.906430602E-1,9.768342972E0
2.534001406E1,-2.681505978E-1,-8.906430602E-1,9.739612579E0
2.536500938E1,-2.489969730E-1,-8.810662031E-1,9.768342972E0
2.539000625E1,-2.585737705E-1,-8.810662031E-1,9.777919769E0
2.541500625E1,-2.489969730E-1,-8.906430602E-1,9.749189377E0
2.543501719E1,-2.585737705E-1,-8.810662031E-1,9.739612579E0
2.545998906E1,-2.777273953E-1,-9.002198577E-1,9.739612579E0
2.548001250E1,-2.394201756E-1,-9.002198577E-1,9.739612579E0
2.550500938E1,-2.585737705E-1,-9.002198577E-1,9.758766174E0
2.553000469E1,-2.873041928E-1,-8.714894056E-1,9.768342972E0
2.555500156E1,-3.064578176E-1,-9.002198577E-1,9.787496567E0
2.557999688E1,-2.873041928E-1,-8.714894056E-1,9.768342972E0
2.560499531E1,-2.968810201E-1,-8.714894056E-1,9.739612579E0
2.562999062E1,-2.681505978E-1,-8.906430602E-1,9.739612579E0
2.565001250E1,-2.968810201E-1,-8.810662031E-1,9.730035782E0
2.567500938E1,-2.585737705E-1,-8.810662031E-1,9.758766174E0
2.570000625E1,-2.777273953E-1,-8.906430602E-1,9.777919769E0
2.572500312E1,-2.489969730E-1,-8.810662031E-1,9.758766174E0
2.574999844E1,-2.585737705E-1,-8.810662031E-1,9.749189377E0
2.577499688E1,-2.681505978E-1,-8.714894056E-1,9.758766174E0
2.579999219E1,-2.394201756E-1,-8.906430602E-1,9.758766174E0
2.582001406E1,-2.585737705E-1,-8.619126081E-1,9.739612579E0
2.584501094E1,-2.681505978E-1,-8.906430602E-1,9.720458984E0
2.587000781E1,-2.489969730E-1,-9.097966552E-1,9.749189377E0
2.589500469E1,-2.394201756E-1,-9.097966552E-1,9.777919769E0
2.592000000E1,-2.873041928E-1,-8.906430602E-1,9.787496567E0
2.594499688E1,-2.968810201E-1,-8.523358107E-1,9.768342972E0
2.596501719E1,-2.968810201E-1,-8.236053586E-1,9.720458984E0
2.599001562E1,-2.968810201E-1,-8.236053586E-1,9.730035782E0
2.601501250E1,-2.777273953E-1,-8.810662031E-1,9.730035782E0
2.604000781E1,-2.681505978E-1,-9.193734527E-1,9.739612579E0
2.606500469E1,-2.394201756E-1,-9.097966552E-1,9.768342972E0
2.609000156E1,-2.681505978E-1,-9.097966552E-1,9.758766174E0
2.611499844E1,-2.489969730E-1,-8.906430602E-1,9.768342972E0
2.613500312E1,-2.681505978E-1,-8.810662031E-1,9.787496567E0
2.615501094E1,-2.585737705E-1,-8.714894056E-1,9.749189377E0
2.618000781E1,-2.489969730E-1,-9.002198577E-1,9.739612579E0
2.620500469E1,-2.298433632E-1,-8.906430602E-1,9.768342972E0
2.623000000E1,-2.298433632E-1,-8.714894056E-1,9.768342972E0
2.625499688E1,-2.873041928E-1,-8.714894056E-1,9.768342972E0
2.627999219E1,-2.968810201E-1,-8.714894056E-1,9.777919769E0
2.630001562E1,-2.968810201E-1,-8.906430602E-1,9.749189377E0
2.632501094E1,-2.681505978E-1,-9.097966552E-1,9.768342972E0
2.635000781E1,-2.681505978E-1,-9.002198577E-1,9.758766174E0
2.637500469E1,-2.585737705E-1,-9.385270476E-1,9.749189377E0
2.640000156E1,-2.394201756E-1,-8.906430602E-1,9.768342972E0
2.642499844E1,-2.585737705E-1,-8.427590132E-1,9.768342972E0
2.644999375E1,-2.585737705E-1,-8.714894056E-1,9.739612579E0
2.647499062E1,-2.681505978E-1,-8.906430602E-1,9.739612579E0
2.649501250E1,-2.298433632E-1,-9.193734527E-1,9.758766174E0
2.652000938E1,-2.011129409E-1,-9.193734527E-1,9.777919769E0
2.654500625E1,-2.106897533E-1,-9.097966552E-1,9.787496567E0
2.657000156E1,-2.394201756E-1,-8.906430602E-1,9.777919769E0
2.659500000E1,-2.777273953E-1,-8.906430602E-1,9.720458984E0
2.661999531E1,-2.681505978E-1,-9.097966552E-1,9.739612579E0
2.664499219E1,-2.873041928E-1,-8.906430602E-1,9.768342972E0
2.666501406E1,-2.777273953E-1,-8.906430602E-1,9.749189377E0
2.669001094E1,-2.585737705E-1,-8.906430602E-1,9.758766174E0
2.671500781E1,-2.585737705E-1,-9.002198577E-1,9.777919769E0
2.674000312E1,-2.298433632E-1,-8.810662031E-1,9.777919769E0
2.676500000E1,-2.394201756E-1,-9.002198577E-1,9.777919769E0
2.678999531E1,-2.202665508E-1,-9.002198577E-1,9.758766174E0
2.681499375E1,-2.394201756E-1,-8.619126081E-1,9.758766174E0
2.683501562E1,-2.298433632E-1,-8.523358107E-1,9.777919769E0
2.686001094E1,-2.681505978E-1,-8.427590132E-1,9.739612579E0
2.688500781E1,-2.873041928E-1,-9.002198577E-1,9.758766174E0
2.691000469E1,-3.160346150E-1,-8.906430602E-1,9.739612579E0
2.693500156E1,-3.543418646E-1,-8.619126081E-1,9.768342972E0
2.695999688E1,-3.734954596E-1,-8.714894056E-1,9.739612579E0
2.698499375E1,-3.734954596E-1,-8.810662031E-1,9.701305389E0
2.700999062E1,-3.543418646E-1,-9.576807022E-1,9.749189377E0
2.703001250E1,-2.777273953E-1,-9.385270476E-1,9.806650162E0
2.705500938E1,-2.011129409E-1,-8.619126081E-1,9.739612579E0
2.708000625E1,-1.628057212E-1,-8.331822157E-1,9.777919769E0
2.710500313E1,-1.340752989E-1,-8.810662031E-1,9.758766174E0
2.712999844E1,-1.723825186E-1,-9.289502501E-1,9.758766174E0
2.715499531E1,-2.011129409E-1,-9.002198577E-1,9.720458984E0
2.717999063E1,-2.777273953E-1,-9.002198577E-1,9.710882187E0
2.720001406E1,-3.064578176E-1,-8.906430602E-1,9.758766174E0
2.722501094E1,-3.064578176E-1,-8.906430602E-1,9.787496567E0
2.725000625E1,-2.873041928E-1,-8.906430602E-1,9.768342972E0
2.727500312E1,-3.064578176E-1,-9.002198577E-1,9.730035782E0
2.729999844E1,-3.543418646E-1,-8.810662031E-1,9.739612579E0
2.732499688E1,-3.064578176E-1,-8.523358107E-1,9.758766174E0
2.734999219E1,-2.873041928E-1,-8.714894056E-1,9.720458984E0
2.737001406E1,-2.394201756E-1,-8.714894056E-1,9.739612579E0
2.739501250E1,-2.298433632E-1,-8.906430602E-1,9.768342972E0
2.742000625E1,-2.202665508E-1,-9.193734527E-1,9.816226959E0
2.744500469E1,-2.298433632E-1,-9.097966552E-1,9.777919769E0
2.747000000E1,-2.585737705E-1,-8.810662031E-1,9.701305389E0
2.749500000E1,-2.968810201E-1,-8.619126081E-1,9.749189377E0
2.751999375E1,-3.351882398E-1,-9.002198577E-1,9.787496567E0
2.754001563E1,-3.543418646E-1,-9.097966552E-1,9.758766174E0
2.756501250E1,-3.639186621E-1,-9.002198577E-1,9.787496567E0
2.759000938E1,-3.256114423E-1,-8.427590132E-1,9.749189377E0
2.761504531E1,-2.681505978E-1,-8.619126081E-1,9.710882187E0
2.764000156E1,-1.628057212E-1,-9.002198577E-1,9.701305389E0
2.766499844E1,-1.053448766E-1,-9.672574997E-1,9.806650162E0
2.768999375E1,-1.436520964E-1,-9.768342972E-1,9.844957352E0
2.771499219E1,-1.819593310E-1,-9.289502501E-1,9.787496567E0
2.773501406E1,-2.489969730E-1,-8.523358107E-1,9.749189377E0
2.776001094E1,-3.160346150E-1,-8.236053586E-1,9.701305389E0
2.778500625E1,-3.256114423E-1,-8.619126081E-1,9.730035782E0
2.781000156E1,-3.543418646E-1,-9.193734527E-1,9.777919769E0
2.783500000E1,-3.830722570E-1,-8.906430602E-1,9.797073364E0
2.785999531E1,-3.639186621E-1,-8.427590132E-1,9.749189377E0
2.788499219E1,-3.160346150E-1,-8.906430602E-1,9.720458984E0
2.790501562E1,-2.298433632E-1,-9.289502501E-1,9.710882187E0
2.793001094E1,-1.819593310E-1,-9.385270476E-1,9.730035782E0
2.795500781E1,-1.723825186E-1,-8.810662031E-1,9.797073364E0
2.798000469E1,-2.106897533E-1,-8.523358107E-1,9.806650162E0
2.800500000E1,-2.585737705E-1,-8.523358107E-1,9.787496567E0
2.802999688E1,-2.873041928E-1,-9.193734527E-1,9.730035782E0
2.805499375E1,-2.968810201E-1,-9.385270476E-1,9.777919769E0
2.807501563E1,-2.873041928E-1,-8.810662031E-1,9.797073364E0
2.810001094E1,-3.064578176E-1,-7.661445141E-1,9.787496567E0
2.812500938E1,-3.543418646E-1,-8.523358107E-1,9.720458984E0
2.815000469E1,-3.064578176E-1,-9.768342972E-1,9.701305389E0
2.817500156E1,-2.777273953E-1,-9.576807022E-1,9.768342972E0
2.819999688E1,-2.585737705E-1,-8.523358107E-1,9.768342972E0
2.822499531E1,-2.202665508E-1,-8.619126081E-1,9.730035782E0
2.824999063E1,-1.436520964E-1,-9.289502501E-1,9.777919769E0
2.827001250E1,-8.619125932E-2,-9.576807022E-1,9.806650162E0
2.829500938E1,-1.244984865E-1,-9.002198577E-1,9.844957352E0
2.832000625E1,-2.681505978E-1,-8.236053586E-1,9.768342972E0
2.834500156E1,-3.543418646E-1,-8.236053586E-1,9.730035782E0
2.836999844E1,-3.926490843E-1,-8.427590132E-1,9.701305389E0
2.839499531E1,-3.830722570E-1,-8.523358107E-1,9.720458984E0
2.841999219E1,-3.639186621E-1,-8.906430602E-1,9.777919769E0
2.844001406E1,-3.830722570E-1,-9.193734527E-1,9.739612579E0
2.846501094E1,-2.968810201E-1,-9.289502501E-1,9.739612579E0
2.849000781E1,-2.106897533E-1,-9.289502501E-1,9.797073364E0
2.851500469E1,-1.723825186E-1,-9.385270476E-1,9.797073364E0
2.853500781E1,-1.628057212E-1,-8.427590132E-1,9.758766174E0
2.855999062E1,-1.915361285E-1,-8.140285611E-1,9.730035782E0
2.858001250E1,-2.106897533E-1,-8.619126081E-1,9.777919769E0
2.860501094E1,-2.394201756E-1,-9.002198577E-1,9.816226959E0
2.863000469E1,-2.681505978E-1,-8.810662031E-1,9.787496567E0
2.865500312E1,-3.064578176E-1,-8.619126081E-1,9.739612579E0
2.867999844E1,-3.256114423E-1,-8.619126081E-1,9.749189377E0
2.870499688E1,-3.351882398E-1,-8.714894056E-1,9.768342972E0
2.872999219E1,-3.160346150E-1,-9.097966552E-1,9.730035782E0
2.875001406E1,-3.064578176E-1,-9.193734527E-1,9.691728592E0
2.877501094E1,-2.968810201E-1,-8.810662031E-1,9.749189377E0
2.880000781E1,-2.585737705E-1,-8.906430602E-1,9.806650162E0
2.882500313E1,-2.489969730E-1,-8.714894056E-1,9.777919769E0
2.885000000E1,-2.394201756E-1,-8.619126081E-1,9.787496567E0
2.887499688E1,-2.106897533E-1,-9.002198577E-1,9.758766174E0
2.889999219E1,-2.106897533E-1,-9.002198577E-1,9.749189377E0
2.892001562E1,-2.106897533E-1,-9.002198577E-1,9.768342972E0
2.894501250E1,-2.489969730E-1,-8.619126081E-1,9.749189377E0
2.897000781E1,-2.968810201E-1,-8.427590132E-1,9.749189377E0
2.899500469E1,-3.256114423E-1,-8.619126081E-1,9.758766174E0
2.902000156E1,-3.160346150E-1,-9.289502501E-1,9.749189377E0
2.904499844E1,-3.639186621E-1,-9.672574997E-1,9.758766174E0
2.906999375E1,-3.351882398E-1,-8.714894056E-1,9.787496567E0
2.909499062E1,-2.873041928E-1,-7.852981687E-1,9.749189377E0
2.911501406E1,-2.394201756E-1,-7.852981687E-1,9.730035782E0
2.914000938E1,-1.819593310E-1,-8.906430602E-1,9.768342972E0
2.916500625E1,-1.532289088E-1,-9.672574997E-1,9.777919769E0
2.919000312E1,-1.628057212E-1,-9.481038451E-1,9.825803757E0
2.921499844E1,-2.489969730E-1,-8.810662031E-1,9.816226959E0
2.923500156E1,-2.873041928E-1,-8.236053586E-1,9.758766174E0
2.925501250E1,-3.447650373E-1,-8.523358107E-1,9.720458984E0
2.928000781E1,-3.160346150E-1,-8.810662031E-1,9.730035782E0
2.930500469E1,-3.256114423E-1,-8.906430602E-1,9.739612579E0
2.933000156E1,-3.160346150E-1,-9.002198577E-1,9.768342972E0
2.935499844E1,-3.064578176E-1,-8.427590132E-1,9.768342972E0
2.937999375E1,-2.489969730E-1,-8.523358107E-1,9.768342972E0
2.940499219E1,-2.202665508E-1,-8.619126081E-1,9.758766174E0
2.942501875E1,-2.394201756E-1,-8.906430602E-1,9.749189377E0
2.945000938E1,-2.202665508E-1,-8.906430602E-1,9.777919769E0
2.947500625E1,-2.585737705E-1,-8.906430602E-1,9.797073364E0
2.950000313E1,-2.777273953E-1,-9.097966552E-1,9.787496567E0
2.952499844E1,-3.064578176E-1,-9.289502501E-1,9.787496567E0
2.954999531E1,-2.777273953E-1,-8.714894056E-1,9.739612579E0
2.957499219E1,-3.256114423E-1,-8.427590132E-1,9.730035782E0
2.959501406E1,-2.968810201E-1,-8.714894056E-1,9.749189377E0
2.961503438E1,-2.968810201E-1,-9.097966552E-1,9.758766174E0
2.964000156E1,-2.777273953E-1,-9.002198577E-1,9.768342972E0
2.966499688E1,-2.873041928E-1,-8.523358107E-1,9.787496567E0
2.968999375E1,-2.777273953E-1,-8.427590132E-1,9.768342972E0
2.971499219E1,-2.489969730E-1,-8.619126081E-1,9.730035782E0
2.973501406E1,-2.394201756E-1,-8.906430602E-1,9.768342972E0
2.976000938E1,-2.489969730E-1,-9.193734527E-1,9.787496567E0
2.978500625E1,-2.681505978E-1,-9.002198577E-1,9.749189377E0
2.981000312E1,-2.968810201E-1,-9.002198577E-1,9.758766174E0
2.983499844E1,-2.873041928E-1,-8.619126081E-1,9.758766174E0
2.985999375E1,-2.681505978E-1,-8.619126081E-1,9.777919769E0
2.988499219E1,-2.489969730E-1,-8.906430602E-1,9.777919769E0
2.990501406E1,-2.585737705E-1,-8.619126081E-1,9.768342972E0
2.993001094E1,-2.681505978E-1,-8.906430602E-1,9.777919769E0
2.995500781E1,-2.968810201E-1,-8.810662031E-1,9.787496567E0
2.998000313E1,-2.681505978E-1,-9.193734527E-1,9.797073364E0
3.000500000E1,-2.489969730E-1,-8.810662031E-1,9.758766174E0
3.002999688E1,-2.394201756E-1,-8.714894056E-1,9.787496567E0
3.005499375E1,-2.585737705E-1,-8.810662031E-1,9.749189377E0
3.007501563E1,-2.681505978E-1,-8.523358107E-1,9.768342972E0
3.010001250E1,-2.585737705E-1,-8.714894056E-1,9.758766174E0
3.012500781E1,-3.064578176E-1,-9.097966552E-1,9.758766174E0
3.015000469E1,-3.160346150E-1,-9.193734527E-1,9.816226959E0
3.017500156E1,-2.777273953E-1,-8.427590132E-1,9.797073364E0
3.019999688E1,-2.298433632E-1,-8.236053586E-1,9.806650162E0
3.022499531E1,-2.298433632E-1,-8.523358107E-1,9.749189377E0
3.024999063E1,-2.202665508E-1,-9.576807022E-1,9.758766174E0
3.027001250E1,-2.202665508E-1,-9.002198577E-1,9.768342972E0
3.029500938E1,-2.873041928E-1,-8.619126081E-1,9.777919769E0
3.032000469E1,-3.447650373E-1,-8.619126081E-1,9.758766174E0
3.034500312E1,-3.926490843E-1,-8.523358107E-1,9.777919769E0
3.036999844E1,-3.543418646E-1,-8.140285611E-1,9.777919769E0
3.039499531E1,-2.968810201E-1,-8.714894056E-1,9.739612579E0
3.041999219E1,-2.777273953E-1,-9.193734527E-1,9.749189377E0
3.044001406E1,-2.202665508E-1,-9.481038451E-1,9.749189377E0
3.046501094E1,-2.011129409E-1,-9.097966552E-1,9.797073364E0
3.049000625E1,-2.106897533E-1,-8.427590132E-1,9.825803757E0
3.051500469E1,-2.298433632E-1,-8.427590132E-1,9.787496567E0
3.054000000E1,-2.011129409E-1,-9.002198577E-1,9.739612579E0
3.056499688E1,-2.298433632E-1,-9.193734527E-1,9.787496567E0
3.058999219E1,-2.585737705E-1,-8.810662031E-1,9.835380554E0
3.061001406E1,-2.873041928E-1,-8.619126081E-1,9.797073364E0
3.063501094E1,-3.447650373E-1,-8.714894056E-1,9.777919769E0
3.066000781E1,-3.639186621E-1,-9.193734527E-1,9.758766174E0
3.068500469E1,-3.351882398E-1,-9.002198577E-1,9.768342972E0
3.071000000E1,-2.968810201E-1,-8.810662031E-1,9.787496567E0
3.073499531E1,-2.777273953E-1,-8.906430602E-1,9.758766174E0
3.075999375E1,-2.489969730E-1,-8.714894056E-1,9.787496567E0
3.078499063E1,-2.202665508E-1,-8.810662031E-1,9.797073364E0
3.080505625E1,-2.011129409E-1,-8.810662031E-1,9.797073364E0
3.083000938E1,-2.298433632E-1,-8.906430602E-1,9.768342972E0
3.085500625E1,-2.585737705E-1,-8.714894056E-1,9.777919769E0
3.088000156E1,-2.585737705E-1,-8.810662031E-1,9.806650162E0
3.090499844E1,-2.681505978E-1,-8.810662031E-1,9.787496567E0
3.092999375E1,-2.873041928E-1,-9.193734527E-1,9.768342972E0
3.095499062E1,-2.968810201E-1,-9.097966552E-1,9.749189377E0
3.097501406E1,-2.873041928E-1,-8.906430602E-1,9.777919769E0
3.100000938E1,-2.681505978E-1,-8.810662031E-1,9.768342972E0
3.102500625E1,-2.585737705E-1,-8.906430602E-1,9.787496567E0
3.105000156E1,-2.585737705E-1,-8.714894056E-1,9.777919769E0
3.107500000E1,-2.585737705E-1,-8.810662031E-1,9.787496567E0
3.109999531E1,-2.585737705E-1,-8.714894056E-1,9.777919769E0
3.112499219E1,-2.489969730E-1,-8.906430602E-1,9.797073364E0
3.114501563E1,-2.394201756E-1,-8.714894056E-1,9.777919769E0
3.117001094E1,-2.489969730E-1,-8.810662031E-1,9.749189377E0
3.119500781E1,-2.585737705E-1,-9.481038451E-1,9.758766174E0
3.122000469E1,-2.681505978E-1,-9.289502501E-1,9.787496567E0
3.124500000E1,-2.777273953E-1,-8.236053586E-1,9.768342972E0
3.126999688E1,-2.873041928E-1,-8.236053586E-1,9.749189377E0
3.129499375E1,-2.585737705E-1,-9.002198577E-1,9.777919769E0
3.131501562E1,-2.394201756E-1,-9.193734527E-1,9.777919769E0
3.134001250E1,-2.298433632E-1,-9.193734527E-1,9.768342972E0
3.136500938E1,-2.394201756E-1,-9.097966552E-1,9.787496567E0
3.139000469E1,-2.585737705E-1,-8.810662031E-1,9.777919769E0
3.141500156E1,-2.394201756E-1,-8.714894056E-1,9.787496567E0
3.143999844E1,-2.298433632E-1,-8.523358107E-1,9.749189377E0
3.146499531E1,-2.394201756E-1,-8.619126081E-1,9.749189377E0
3.148999062E1,-2.968810201E-1,-8.906430602E-1,9.758766174E0
3.151001250E1,-2.585737705E-1,-9.002198577E-1,9.777919769E0
3.153503750E1,-2.298433632E-1,-8.523358107E-1,9.787496567E0
3.156000625E1,-2.489969730E-1,-8.714894056E-1,9.758766174E0
3.158500313E1,-2.202665508E-1,-9.385270476E-1,9.797073364E0
3.160999844E1,-2.585737705E-1,-9.002198577E-1,9.825803757E0
3.163499531E1,-2.968810201E-1,-8.619126081E-1,9.777919769E0
3.165999219E1,-2.681505978E-1,-8.810662031E-1,9.749189377E0
3.168001406E1,-2.777273953E-1,-8.810662031E-1,9.730035782E0
3.170501094E1,-2.585737705E-1,-9.193734527E-1,9.730035782E0
3.173000781E1,-2.298433632E-1,-9.289502501E-1,9.768342972E0
3.175500469E1,-2.585737705E-1,-9.193734527E-1,9.787496567E0
3.178000000E1,-2.777273953E-1,-8.714894056E-1,9.777919769E0
3.180502813E1,-2.968810201E-1,-8.619126081E-1,9.777919769E0
3.182999375E1,-2.681505978E-1,-9.193734527E-1,9.768342972E0
3.185001562E1,-2.681505978E-1,-9.193734527E-1,9.787496567E0
3.187501250E1,-2.585737705E-1,-8.714894056E-1,9.787496567E0
3.190000781E1,-2.777273953E-1,-8.331822157E-1,9.768342972E0
3.192500781E1,-2.585737705E-1,-9.002198577E-1,9.749189377E0
3.195000156E1,-2.489969730E-1,-9.193734527E-1,9.777919769E0
3.197499844E1,-2.681505978E-1,-8.906430602E-1,9.768342972E0
3.199999375E1,-2.777273953E-1,-9.002198577E-1,9.768342972E0
3.202499062E1,-2.777273953E-1,-8.810662031E-1,9.787496567E0
3.204501406E1,-2.585737705E-1,-8.810662031E-1,9.768342972E0
3.207000938E1,-2.681505978E-1,-8.906430602E-1,9.797073364E0
3.209500625E1,-2.298433632E-1,-8.810662031E-1,9.758766174E0
3.212000156E1,-2.489969730E-1,-8.523358107E-1,9.749189377E0
3.214499844E1,-2.873041928E-1,-8.906430602E-1,9.777919769E0
3.216999531E1,-2.681505978E-1,-9.289502501E-1,9.797073364E0
3.219499219E1,-2.585737705E-1,-9.097966552E-1,9.787496567E0
3.221501406E1,-2.681505978E-1,-8.331822157E-1,9.768342972E0
3.223502031E1,-2.489969730E-1,-8.331822157E-1,9.758766174E0
3.226000000E1,-2.681505978E-1,-8.810662031E-1,9.758766174E0
3.228499844E1,-2.489969730E-1,-9.289502501E-1,9.768342972E0
3.230999375E1,-2.873041928E-1,-9.002198577E-1,9.777919769E0
3.233499062E1,-2.968810201E-1,-8.810662031E-1,9.758766174E0
3.235501406E1,-2.777273953E-1,-9.002198577E-1,9.777919769E0
3.238000938E1,-2.585737705E-1,-8.619126081E-1,9.797073364E0
3.240500625E1,-2.298433632E-1,-8.523358107E-1,9.758766174E0
3.243000312E1,-2.202665508E-1,-8.810662031E-1,9.749189377E0
3.245500000E1,-2.681505978E-1,-8.714894056E-1,9.777919769E0
3.247999531E1,-2.681505978E-1,-8.714894056E-1,9.797073364E0
3.250499219E1,-2.777273953E-1,-8.810662031E-1,9.749189377E0
3.252501406E1,-2.681505978E-1,-9.097966552E-1,9.749189377E0
3.255000938E1,-2.106897533E-1,-9.002198577E-1,9.787496567E0
3.257500781E1,-2.298433632E-1,-8.810662031E-1,9.806650162E0
3.260000312E1,-2.489969730E-1,-8.810662031E-1,9.787496567E0
3.262500000E1,-2.585737705E-1,-9.097966552E-1,9.758766174E0
3.264999531E1,-2.873041928E-1,-9.002198577E-1,9.758766174E0
3.267499375E1,-2.873041928E-1,-8.906430602E-1,9.777919769E0
3.269501562E1,-2.681505978E-1,-8.906430602E-1,9.758766174E0
3.272001094E1,-2.489969730E-1,-8.906430602E-1,9.787496567E0
3.274500781E1,-2.585737705E-1,-9.002198577E-1,9.758766174E0
3.277000469E1,-2.489969730E-1,-9.097966552E-1,9.749189377E0
3.279500156E1,-2.298433632E-1,-9.289502501E-1,9.758766174E0
3.281999688E1,-2.394201756E-1,-8.906430602E-1,9.777919769E0
3.284499375E1,-2.585737705E-1,-8.523358107E-1,9.768342972E0
3.286999062E1,-2.873041928E-1,-8.427590132E-1,9.768342972E0
3.289001250E1,-2.777273953E-1,-8.714894056E-1,9.739612579E0
3.291500938E1,-2.585737705E-1,-9.002198577E-1,9.758766174E0
3.293502500E1,-2.489969730E-1,-9.097966552E-1,9.768342972E0
3.295999531E1,-2.394201756E-1,-8.906430602E-1,9.777919769E0
3.298499375E1,-2.202665508E-1,-8.714894056E-1,9.749189377E0
3.300501562E1,-2.298433632E-1,-8.810662031E-1,9.777919769E0
3.303001094E1,-2.489969730E-1,-8.810662031E-1,9.749189377E0
3.305500781E1,-2.585737705E-1,-8.714894056E-1,9.739612579E0
3.308000469E1,-2.777273953E-1,-8.714894056E-1,9.749189377E0
3.310500156E1,-2.681505978E-1,-8.619126081E-1,9.777919769E0
3.312999688E1,-2.489969730E-1,-8.619126081E-1,9.777919769E0
3.315499375E1,-2.585737705E-1,-8.906430602E-1,9.739612579E0
3.317999062E1,-2.585737705E-1,-9.481038451E-1,9.777919769E0
3.320001250E1,-2.489969730E-1,-9.097966552E-1,9.777919769E0
3.322500938E1,-2.394201756E-1,-8.619126081E-1,9.777919769E0
3.325000625E1,-2.394201756E-1,-8.140285611E-1,9.797073364E0
3.327500313E1,-2.489969730E-1,-8.619126081E-1,9.739612579E0
3.329999844E1,-2.489969730E-1,-9.193734527E-1,9.749189377E0
3.332499531E1,-2.681505978E-1,-9.193734527E-1,9.749189377E0
3.334999063E1,-2.777273953E-1,-8.906430602E-1,9.749189377E0
3.337001406E1,-2.489969730E-1,-8.810662031E-1,9.749189377E0
3.339501094E1,-2.298433632E-1,-8.619126081E-1,9.768342972E0
3.342000625E1,-2.489969730E-1,-8.906430602E-1,9.749189377E0
3.344500312E1,-2.489969730E-1,-8.619126081E-1,9.749189377E0
3.347000000E1,-2.777273953E-1,-8.810662031E-1,9.739612579E0
3.349500313E1,-2.681505978E-1,-8.906430602E-1,9.749189377E0
3.351999219E1,-2.585737705E-1,-8.714894056E-1,9.758766174E0
3.354001406E1,-2.585737705E-1,-8.906430602E-1,9.777919769E0
3.356501250E1,-2.394201756E-1,-8.810662031E-1,9.758766174E0
3.359000781E1,-2.394201756E-1,-8.906430602E-1,9.768342972E0
3.361500469E1,-2.394201756E-1,-9.097966552E-1,9.749189377E0
3.364000000E1,-2.489969730E-1,-9.002198577E-1,9.749189377E0
3.366499688E1,-2.585737705E-1,-8.714894056E-1,9.758766174E0
3.368999375E1,-2.681505978E-1,-8.810662031E-1,9.768342972E0
3.371499062E1,-2.681505978E-1,-8.906430602E-1,9.749189377E0
3.373501250E1,-2.681505978E-1,-8.906430602E-1,9.758766174E0
3.376000938E1,-2.585737705E-1,-8.810662031E-1,9.777919769E0
3.378500625E1,-2.585737705E-1,-8.906430602E-1,9.739612579E0
3.381000156E1,-2.298433632E-1,-9.002198577E-1,9.758766174E0
3.383499844E1,-2.489969730E-1,-9.002198577E-1,9.749189377E0
3.385500469E1,-2.298433632E-1,-8.906430602E-1,9.749189377E0
3.387501250E1,-2.681505978E-1,-8.810662031E-1,9.768342972E0
3.390000781E1,-2.585737705E-1,-9.002198577E-1,9.758766174E0
3.392500625E1,-2.585737705E-1,-9.097966552E-1,9.730035782E0
3.395000000E1,-2.681505978E-1,-8.906430602E-1,9.739612579E0
3.397500000E1,-2.489969730E-1,-9.002198577E-1,9.768342972E0
3.399999375E1,-2.777273953E-1,-8.619126081E-1,9.758766174E0
3.402499062E1,-2.681505978E-1,-8.810662031E-1,9.758766174E0
3.404501250E1,-2.489969730E-1,-8.810662031E-1,9.768342972E0
3.407000938E1,-2.202665508E-1,-8.619126081E-1,9.749189377E0
3.409500625E1,-2.681505978E-1,-8.810662031E-1,9.758766174E0
3.412000156E1,-2.489969730E-1,-8.810662031E-1,9.768342972E0
3.414499844E1,-2.585737705E-1,-8.714894056E-1,9.749189377E0
3.416999375E1,-2.489969730E-1,-8.619126081E-1,9.749189377E0
3.419499219E1,-2.681505978E-1,-8.810662031E-1,9.730035782E0
3.421503125E1,-2.873041928E-1,-9.097966552E-1,9.749189377E0
3.424000938E1,-2.681505978E-1,-9.097966552E-1,9.768342972E0
3.426500625E1,-2.585737705E-1,-8.331822157E-1,9.768342972E0
3.429000313E1,-2.394201756E-1,-8.619126081E-1,9.768342972E0
3.431500000E1,-2.394201756E-1,-9.002198577E-1,9.749189377E0
3.433999688E1,-2.585737705E-1,-9.193734527E-1,9.720458984E0
3.436499219E1,-2.585737705E-1,-9.289502501E-1,9.739612579E0
3.438501562E1,-2.585737705E-1,-8.810662031E-1,9.768342972E0
3.441001094E1,-2.489969730E-1,-8.619126081E-1,9.768342972E0
3.443501250E1,-2.298433632E-1,-8.619126081E-1,9.749189377E0
3.446000469E1,-2.202665508E-1,-8.810662031E-1,9.749189377E0
3.448500156E1,-2.298433632E-1,-8.619126081E-1,9.777919769E0
3.450999688E1,-2.585737705E-1,-8.810662031E-1,9.749189377E0
3.453502656E1,-2.585737705E-1,-8.906430602E-1,9.758766174E0
3.455998906E1,-2.489969730E-1,-8.714894056E-1,9.777919769E0
3.458001250E1,-2.585737705E-1,-8.810662031E-1,9.739612579E0
3.460500938E1,-2.585737705E-1,-9.193734527E-1,9.758766174E0
3.463000469E1,-2.585737705E-1,-9.002198577E-1,9.768342972E0
3.465500156E1,-2.489969730E-1,-9.002198577E-1,9.749189377E0
3.467999844E1,-2.681505978E-1,-8.810662031E-1,9.758766174E0
3.470499531E1,-2.489969730E-1,-8.714894056E-1,9.749189377E0
3.472999062E1,-2.681505978E-1,-8.810662031E-1,9.758766174E0
3.475001250E1,-2.489969730E-1,-8.714894056E-1,9.749189377E0
3.477501094E1,-2.585737705E-1,-9.002198577E-1,9.768342972E0
3.480000625E1,-2.681505978E-1,-8.810662031E-1,9.768342972E0
3.482500312E1,-2.585737705E-1,-8.810662031E-1,9.768342972E0
3.484999844E1,-2.585737705E-1,-9.002198577E-1,9.749189377E0
3.487499531E1,-2.585737705E-1,-8.810662031E-1,9.787496567E0
3.489999062E1,-2.681505978E-1,-8.810662031E-1,9.777919769E0
3.492001406E1,-2.585737705E-1,-8.810662031E-1,9.749189377E0
3.494501094E1,-2.681505978E-1,-9.002198577E-1,9.739612579E0
3.497000781E1,-2.394201756E-1,-8.714894056E-1,9.730035782E0
3.499500469E1,-2.585737705E-1,-8.810662031E-1,9.768342972E0
3.502000000E1,-2.681505978E-1,-8.906430602E-1,9.787496567E0
3.504499688E1,-2.681505978E-1,-8.810662031E-1,9.768342972E0
3.506500000E1,-2.489969730E-1,-8.810662031E-1,9.787496567E0
3.508501094E1,-2.489969730E-1,-8.619126081E-1,9.777919769E0
3.511000625E1,-2.489969730E-1,-9.097966552E-1,9.768342972E0
3.513500156E1,-2.298433632E-1,-8.906430602E-1,9.758766174E0
3.515999844E1,-2.585737705E-1,-8.810662031E-1,9.739612579E0
3.518499375E1,-2.489969730E-1,-9.097966552E-1,9.739612579E0
3.520999219E1,-2.777273953E-1,-9.002198577E-1,9.777919769E0
3.523001406E1,-2.585737705E-1,-8.619126081E-1,9.797073364E0
3.525501094E1,-2.394201756E-1,-8.331822157E-1,9.768342972E0
3.528000781E1,-2.585737705E-1,-8.714894056E-1,9.768342972E0
3.530500469E1,-2.585737705E-1,-9.002198577E-1,9.768342972E0
3.533000000E1,-2.489969730E-1,-9.289502501E-1,9.768342972E0
3.535499688E1,-2.585737705E-1,-9.193734527E-1,9.749189377E0
3.537999375E1,-2.681505978E-1,-8.714894056E-1,9.710882187E0
3.540001562E1,-2.489969730E-1,-8.619126081E-1,9.768342972E0
3.542501250E1,-2.298433632E-1,-8.810662031E-1,9.758766174E0
3.545000781E1,-2.202665508E-1,-8.714894056E-1,9.739612579E0
3.547500625E1,-2.489969730E-1,-8.714894056E-1,9.768342972E0
3.550000156E1,-2.777273953E-1,-8.810662031E-1,9.758766174E0
3.552499844E1,-2.585737705E-1,-8.810662031E-1,9.768342972E0
3.554999375E1,-2.585737705E-1,-8.714894056E-1,9.758766174E0
3.557499063E1,-2.681505978E-1,-8.906430602E-1,9.768342972E0
3.559501406E1,-2.489969730E-1,-9.097966552E-1,9.777919769E0
3.562000938E1,-2.298433632E-1,-9.097966552E-1,9.768342972E0
3.564500625E1,-2.298433632E-1,-8.906430602E-1,9.768342972E0
3.567000312E1,-2.681505978E-1,-8.619126081E-1,9.768342972E0
3.569499844E1,-2.777273953E-1,-8.619126081E-1,9.768342972E0
3.571999531E1,-2.394201756E-1,-8.906430602E-1,9.777919769E0
3.574499219E1,-2.585737705E-1,-8.810662031E-1,9.777919769E0
3.576501406E1,-2.489969730E-1,-8.810662031E-1,9.768342972E0
3.579001094E1,-2.489969730E-1,-8.714894056E-1,9.777919769E0
3.581500781E1,-2.394201756E-1,-8.810662031E-1,9.749189377E0
3.584000312E1,-2.489969730E-1,-8.906430602E-1,9.768342972E0
3.586500000E1,-2.585737705E-1,-8.810662031E-1,9.777919769E0
3.588999688E1,-2.489969730E-1,-8.906430602E-1,9.768342972E0
3.591499375E1,-2.681505978E-1,-8.714894056E-1,9.749189377E0
3.593501875E1,-2.681505978E-1,-9.002198577E-1,9.768342972E0
3.596001094E1,-2.585737705E-1,-9.097966552E-1,9.768342972E0
3.598500781E1,-2.585737705E-1,-8.906430602E-1,9.787496567E0
3.601000469E1,-2.489969730E-1,-8.714894056E-1,9.768342972E0
3.603500469E1,-2.298433632E-1,-8.810662031E-1,9.787496567E0
3.605999688E1,-2.585737705E-1,-8.906430602E-1,9.739612579E0
3.608499375E1,-2.681505978E-1,-8.906430602E-1,9.777919769E0
3.610999062E1,-2.681505978E-1,-9.002198577E-1,9.768342972E0
3.613001250E1,-2.777273953E-1,-8.714894056E-1,9.758766174E0
3.615500938E1,-2.585737705E-1,-8.906430602E-1,9.758766174E0
3.618000469E1,-2.681505978E-1,-8.619126081E-1,9.777919769E0
3.620500313E1,-2.777273953E-1,-8.810662031E-1,9.749189377E0
3.622999844E1,-2.489969730E-1,-9.097966552E-1,9.787496567E0
3.625499531E1,-2.489969730E-1,-8.523358107E-1,9.787496567E0
3.627999219E1,-2.394201756E-1,-8.331822157E-1,9.787496567E0
3.630001406E1,-2.681505978E-1,-8.619126081E-1,9.787496567E0
3.632501094E1,-2.585737705E-1,-9.097966552E-1,9.758766174E0
3.635000625E1,-2.777273953E-1,-9.097966552E-1,9.768342972E0
3.637500469E1,-2.681505978E-1,-8.810662031E-1,9.768342972E0
3.640000000E1,-2.585737705E-1,-8.906430602E-1,9.758766174E0
3.642499688E1,-2.585737705E-1,-9.002198577E-1,9.777919769E0
3.644999219E1,-2.202665508E-1,-8.714894056E-1,9.777919769E0
3.647001562E1,-2.202665508E-1,-8.619126081E-1,9.777919769E0
3.649502031E1,-2.681505978E-1,-8.523358107E-1,9.739612579E0
3.652000781E1,-2.681505978E-1,-8.810662031E-1,9.749189377E0
3.654500312E1,-2.777273953E-1,-9.002198577E-1,9.787496567E0
3.657000000E1,-2.585737705E-1,-8.714894056E-1,9.739612579E0
3.659499844E1,-2.394201756E-1,-9.002198577E-1,9.768342972E0
3.661500781E1,-2.681505978E-1,-9.097966552E-1,9.758766174E0
3.663503906E1,-2.394201756E-1,-9.097966552E-1,9.787496567E0
3.666000625E1,-2.681505978E-1,-8.810662031E-1,9.777919769E0
3.668500312E1,-2.681505978E-1,-8.619126081E-1,9.758766174E0
3.671000000E1,-2.681505978E-1,-8.810662031E-1,9.739612579E0
3.673499531E1,-2.489969730E-1,-8.906430602E-1,9.739612579E0
3.675999219E1,-2.394201756E-1,-8.906430602E-1,9.777919769E0
3.678001563E1,-2.681505978E-1,-8.714894056E-1,9.758766174E0
3.680501094E1,-2.681505978E-1,-8.714894056E-1,9.768342972E0
3.683000781E1,-2.489969730E-1,-9.002198577E-1,9.758766174E0
3.685500469E1,-2.489969730E-1,-8.714894056E-1,9.777919769E0
3.688000000E1,-2.298433632E-1,-8.714894056E-1,9.768342972E0
3.690499844E1,-2.681505978E-1,-8.619126081E-1,9.749189377E0
3.692999219E1,-2.585737705E-1,-8.906430602E-1,9.730035782E0
3.695499062E1,-2.585737705E-1,-8.906430602E-1,9.768342972E0
3.697501250E1,-2.681505978E-1,-8.810662031E-1,9.777919769E0
3.700000938E1,-2.873041928E-1,-8.906430602E-1,9.749189377E0
3.702500625E1,-2.777273953E-1,-9.002198577E-1,9.730035782E0
3.705000156E1,-2.298433632E-1,-8.906430602E-1,9.787496567E0
3.707499844E1,-2.585737705E-1,-8.906430602E-1,9.787496567E0
3.709999375E1,-2.489969730E-1,-8.906430602E-1,9.749189377E0
3.712499062E1,-2.298433632E-1,-8.714894056E-1,9.758766174E0
3.714501406E1,-2.585737705E-1,-8.331822157E-1,9.768342972E0
3.717001094E1,-2.585737705E-1,-8.810662031E-1,9.749189377E0
3.719500781E1,-2.681505978E-1,-9.193734527E-1,9.777919769E0
3.721502969E1,-2.585737705E-1,-9.002198577E-1,9.777919769E0
3.723999375E1,-2.489969730E-1,-8.427590132E-1,9.768342972E0
3.726499062E1,-2.585737705E-1,-8.714894056E-1,9.768342972E0
3.728501250E1,-2.394201756E-1,-8.810662031E-1,9.720458984E0
3.731000938E1,-2.394201756E-1,-9.097966552E-1,9.730035782E0
3.733500625E1,-2.873041928E-1,-9.097966552E-1,9.739612579E0
3.736000156E1,-2.873041928E-1,-9.002198577E-1,9.787496567E0
3.738499844E1,-2.777273953E-1,-8.810662031E-1,9.797073364E0
3.740999531E1,-2.394201756E-1,-8.619126081E-1,9.768342972E0
3.743499063E1,-2.298433632E-1,-8.619126081E-1,9.758766174E0
3.745501406E1,-2.394201756E-1,-8.714894056E-1,9.749189377E0
3.748001094E1,-2.681505978E-1,-8.906430602E-1,9.777919769E0
3.750500781E1,-2.681505978E-1,-8.810662031E-1,9.768342972E0
3.753000312E1,-2.681505978E-1,-8.810662031E-1,9.749189377E0
3.755499844E1,-2.681505978E-1,-8.906430602E-1,9.777919769E0
3.757999531E1,-2.585737705E-1,-8.906430602E-1,9.777919769E0
3.760499219E1,-2.585737705E-1,-8.810662031E-1,9.749189377E0
3.762501562E1,-2.777273953E-1,-8.906430602E-1,9.768342972E0
3.765001094E1,-2.681505978E-1,-8.714894056E-1,9.749189377E0
3.767500781E1,-2.298433632E-1,-8.810662031E-1,9.749189377E0
3.770000469E1,-2.394201756E-1,-8.906430602E-1,9.749189377E0
3.772500156E1,-2.489969730E-1,-8.714894056E-1,9.787496567E0
3.774999688E1,-2.681505978E-1,-8.619126081E-1,9.739612579E0
3.777499375E1,-2.681505978E-1,-8.714894056E-1,9.787496567E0
3.779501563E1,-2.585737705E-1,-9.193734527E-1,9.768342972E0
3.781503281E1,-2.394201756E-1,-8.810662031E-1,9.768342972E0
3.784000312E1,-2.489969730E-1,-8.714894056E-1,9.777919769E0
3.786500000E1,-2.489969730E-1,-8.619126081E-1,9.758766174E0
3.788999531E1,-2.681505978E-1,-8.810662031E-1,9.777919769E0
3.791499375E1,-2.681505978E-1,-8.810662031E-1,9.768342972E0
3.793501563E1,-2.777273953E-1,-8.906430602E-1,9.758766174E0
3.796001094E1,-2.489969730E-1,-8.906430602E-1,9.758766174E0
3.798500781E1,-2.394201756E-1,-8.810662031E-1,9.768342972E0
3.801000469E1,-2.489969730E-1,-8.714894056E-1,9.777919769E0
3.803500156E1,-2.681505978E-1,-9.002198577E-1,9.797073364E0
3.805999688E1,-2.394201756E-1,-8.810662031E-1,9.777919769E0
3.808499375E1,-2.394201756E-1,-8.523358107E-1,9.768342972E0
3.810999062E1,-2.489969730E-1,-8.427590132E-1,9.787496567E0
3.813001250E1,-2.681505978E-1,-8.810662031E-1,9.768342972E0
3.815500938E1,-2.489969730E-1,-9.193734527E-1,9.777919769E0
3.818000625E1,-2.489969730E-1,-9.002198577E-1,9.768342972E0
3.820500313E1,-2.681505978E-1,-8.906430602E-1,9.758766174E0
3.822999844E1,-2.585737705E-1,-8.714894056E-1,9.787496567E0
3.825499531E1,-2.489969730E-1,-8.427590132E-1,9.787496567E0
3.827999062E1,-2.202665508E-1,-8.619126081E-1,9.777919769E0
3.830001406E1,-2.585737705E-1,-8.619126081E-1,9.768342972E0
3.832501094E1,-2.489969730E-1,-8.810662031E-1,9.768342972E0
3.834503438E1,-2.681505978E-1,-8.810662031E-1,9.777919769E0
3.836999688E1,-2.681505978E-1,-8.714894056E-1,9.787496567E0
3.839499375E1,-2.489969730E-1,-8.714894056E-1,9.768342972E0
3.841502344E1,-2.489969730E-1,-8.906430602E-1,9.768342972E0
3.843505469E1,-2.489969730E-1,-8.906430602E-1,9.777919769E0
3.846000312E1,-2.489969730E-1,-8.906430602E-1,9.777919769E0
3.848500000E1,-2.681505978E-1,-9.002198577E-1,9.749189377E0
3.850999688E1,-2.777273953E-1,-8.810662031E-1,9.768342972E0
3.853499219E1,-2.681505978E-1,-8.714894056E-1,9.777919769E0
3.855501562E1,-2.585737705E-1,-8.906430602E-1,9.777919769E0
3.858001094E1,-2.585737705E-1,-8.810662031E-1,9.797073364E0
3.860500781E1,-2.298433632E-1,-8.810662031E-1,9.777919769E0
3.863000469E1,-2.585737705E-1,-8.906430602E-1,9.777919769E0
3.865500156E1,-2.585737705E-1,-9.002198577E-1,9.749189377E0
3.867999688E1,-2.298433632E-1,-8.810662031E-1,9.758766174E0
3.870499375E1,-2.777273953E-1,-8.714894056E-1,9.758766174E0
3.872999062E1,-2.489969730E-1,-8.906430602E-1,9.749189377E0
3.875001250E1,-2.585737705E-1,-8.906430602E-1,9.777919769E0
3.877500938E1,-2.777273953E-1,-8.810662031E-1,9.758766174E0
3.880000469E1,-2.873041928E-1,-8.906430602E-1,9.749189377E0
3.882500312E1,-2.489969730E-1,-8.810662031E-1,9.768342972E0
3.884999844E1,-2.489969730E-1,-8.810662031E-1,9.768342972E0
3.887499531E1,-2.585737705E-1,-8.619126081E-1,9.758766174E0
3.889500625E1,-2.489969730E-1,-8.619126081E-1,9.758766174E0
3.891500781E1,-2.585737705E-1,-9.193734527E-1,9.758766174E0
3.893504219E1,-2.489969730E-1,-9.289502501E-1,9.787496567E0
3.895999531E1,-2.489969730E-1,-8.619126081E-1,9.787496567E0
3.898499219E1,-2.394201756E-1,-8.236053586E-1,9.768342972E0
3.900501406E1,-2.585737705E-1,-8.523358107E-1,9.768342972E0
3.903001094E1,-2.585737705E-1,-9.289502501E-1,9.758766174E0
3.905500781E1,-2.585737705E-1,-9.289502501E-1,9.787496567E0
3.908000313E1,-2.585737705E-1,-8.810662031E-1,9.739612579E0
3.910499844E1,-2.681505978E-1,-8.714894056E-1,9.758766174E0
3.912999688E1,-2.681505978E-1,-8.714894056E-1,9.749189377E0
3.915499375E1,-2.585737705E-1,-8.714894056E-1,9.768342972E0
3.917501562E1,-2.394201756E-1,-8.906430602E-1,9.768342972E0
3.920001094E1,-2.585737705E-1,-8.523358107E-1,9.749189377E0
3.922500938E1,-2.585737705E-1,-8.714894056E-1,9.758766174E0
3.925000469E1,-2.489969730E-1,-8.906430602E-1,9.777919769E0
3.927500156E1,-2.585737705E-1,-8.810662031E-1,9.777919769E0
3.929999688E1,-2.585737705E-1,-9.002198577E-1,9.749189377E0
3.932499531E1,-2.585737705E-1,-9.097966552E-1,9.777919769E0
3.934999063E1,-2.489969730E-1,-9.002198577E-1,9.758766174E0
3.937001250E1,-2.777273953E-1,-8.906430602E-1,9.730035782E0
3.939500938E1,-2.681505978E-1,-8.810662031E-1,9.739612579E0
3.942000625E1,-2.489969730E-1,-8.906430602E-1,9.758766174E0
3.944500312E1,-2.489969730E-1,-8.714894056E-1,9.758766174E0
3.946999844E1,-2.585737705E-1,-9.002198577E-1,9.768342972E0
3.949499531E1,-2.394201756E-1,-8.810662031E-1,9.777919769E0
3.951999063E1,-2.489969730E-1,-9.002198577E-1,9.739612579E0
3.954001406E1,-2.394201756E-1,-8.906430602E-1,9.768342972E0
3.956501250E1,-2.489969730E-1,-8.906430602E-1,9.777919769E0
3.959000625E1,-2.489969730E-1,-8.906430602E-1,9.758766174E0
3.961502344E1,-2.681505978E-1,-8.906430602E-1,9.758766174E0
3.964000000E1,-2.681505978E-1,-8.714894056E-1,9.768342972E0
3.966499688E1,-2.777273953E-1,-8.714894056E-1,9.758766174E0
3.968999219E1,-2.489969730E-1,-8.906430602E-1,9.739612579E0
3.971001406E1,-2.298433632E-1,-8.906430602E-1,9.749189377E0
3.973501250E1,-2.681505978E-1,-8.619126081E-1,9.758766174E0
3.976000781E1,-2.394201756E-1,-8.714894056E-1,9.758766174E0
3.978500469E1,-2.489969730E-1,-8.714894056E-1,9.768342972E0
3.981000000E1,-2.202665508E-1,-8.523358107E-1,9.758766174E0
3.983499844E1,-2.777273953E-1,-8.714894056E-1,9.768342972E0
3.985999375E1,-2.681505978E-1,-9.097966552E-1,9.749189377E0
3.988499062E1,-2.585737705E-1,-9.193734527E-1,9.787496567E0
3.990501250E1,-2.585737705E-1,-8.523358107E-1,9.787496567E0
3.993000781E1,-2.585737705E-1,-8.236053586E-1,9.768342972E0
3.995500625E1,-2.489969730E-1,-8.810662031E-1,9.768342972E0
3.998000156E1,-2.298433632E-1,-9.097966552E-1,9.739612579E0
4.000499688E1,-2.585737705E-1,-8.906430602E-1,9.749189377E0
4.002999531E1,-2.489969730E-1,-8.810662031E-1,9.768342972E0
4.005499219E1,-2.681505978E-1,-8.619126081E-1,9.739612579E0
4.007501406E1,-2.298433632E-1,-8.619126081E-1,9.758766174E0
4.010000938E1,-2.394201756E-1,-9.002198577E-1,9.768342972E0
4.012500781E1,-2.202665508E-1,-8.619126081E-1,9.749189377E0
4.015000313E1,-2.585737705E-1,-8.810662031E-1,9.739612579E0
4.017500000E1,-2.585737705E-1,-8.906430602E-1,9.768342972E0
4.019999531E1,-2.585737705E-1,-8.810662031E-1,9.749189377E0
4.022499219E1,-2.585737705E-1,-8.810662031E-1,9.777919769E0
4.024501562E1,-2.489969730E-1,-9.097966552E-1,9.768342972E0
4.027001094E1,-2.489969730E-1,-9.002198577E-1,9.787496567E0
4.029500781E1,-2.681505978E-1,-8.906430602E-1,9.777919769E0
4.032000469E1,-2.681505978E-1,-9.097966552E-1,9.758766174E0
4.034500000E1,-2.681505978E-1,-8.714894056E-1,9.777919769E0
4.036999688E1,-2.777273953E-1,-8.523358107E-1,9.777919769E0
4.039499375E1,-2.585737705E-1,-8.810662031E-1,9.758766174E0
4.041502031E1,-2.585737705E-1,-9.002198577E-1,9.749189377E0
4.044001250E1,-2.681505978E-1,-8.906430602E-1,9.758766174E0
4.046500938E1,-2.394201756E-1,-8.906430602E-1,9.739612579E0
4.049000469E1,-2.394201756E-1,-8.810662031E-1,9.768342972E0
4.051500156E1,-2.489969730E-1,-9.002198577E-1,9.777919769E0
4.053501875E1,-2.489969730E-1,-8.906430602E-1,9.758766174E0
4.055998906E1,-2.585737705E-1,-8.714894056E-1,9.768342972E0
4.058001094E1,-2.777273953E-1,-9.002198577E-1,9.749189377E0
4.060500781E1,-2.873041928E-1,-8.810662031E-1,9.758766174E0
4.063000469E1,-2.681505978E-1,-9.097966552E-1,9.768342972E0
4.065500000E1,-2.394201756E-1,-9.002198577E-1,9.777919769E0
4.067999688E1,-2.585737705E-1,-8.714894056E-1,9.787496567E0
4.070499375E1,-2.394201756E-1,-8.619126081E-1,9.768342972E0
4.072501563E1,-2.585737705E-1,-8.906430602E-1,9.739612579E0
4.075001250E1,-2.394201756E-1,-8.906430602E-1,9.749189377E0
4.077500938E1,-2.489969730E-1,-8.810662031E-1,9.739612579E0
4.080000469E1,-2.298433632E-1,-8.619126081E-1,9.768342972E0
4.082500156E1,-2.585737705E-1,-9.002198577E-1,9.749189377E0
4.084999844E1,-2.777273953E-1,-9.097966552E-1,9.797073364E0
4.087499531E1,-2.298433632E-1,-8.236053586E-1,9.768342972E0
4.089999062E1,-2.681505978E-1,-8.427590132E-1,9.758766174E0
4.092001406E1,-2.681505978E-1,-8.906430602E-1,9.758766174E0
4.094501094E1,-2.489969730E-1,-9.193734527E-1,9.739612579E0
4.097000625E1,-2.585737705E-1,-9.097966552E-1,9.749189377E0
4.099500313E1,-2.777273953E-1,-8.714894056E-1,9.758766174E0
4.101999844E1,-2.585737705E-1,-8.810662031E-1,9.777919769E0
4.104499688E1,-2.585737705E-1,-8.906430602E-1,9.768342972E0
4.106999219E1,-2.394201756E-1,-8.619126081E-1,9.758766174E0
4.109001406E1,-2.394201756E-1,-8.523358107E-1,9.749189377E0
4.111501406E1,-2.202665508E-1,-8.619126081E-1,9.768342972E0
4.113501406E1,-2.681505978E-1,-8.714894056E-1,9.758766174E0
4.115999844E1,-2.394201756E-1,-8.810662031E-1,9.758766174E0
4.118499531E1,-2.681505978E-1,-8.714894056E-1,9.768342972E0
4.120999062E1,-2.489969730E-1,-8.714894056E-1,9.768342972E0
4.123001250E1,-2.585737705E-1,-8.810662031E-1,9.787496567E0
4.125501094E1,-2.585737705E-1,-9.002198577E-1,9.777919769E0
4.128000625E1,-2.777273953E-1,-8.714894056E-1,9.749189377E0
4.130500313E1,-2.777273953E-1,-8.714894056E-1,9.768342972E0
4.132999844E1,-2.681505978E-1,-8.714894056E-1,9.777919769E0
4.135499531E1,-2.489969730E-1,-8.619126081E-1,9.768342972E0
4.137999219E1,-2.298433632E-1,-8.906430602E-1,9.787496567E0
4.140001406E1,-2.298433632E-1,-8.714894056E-1,9.749189377E0
4.142501094E1,-2.489969730E-1,-8.906430602E-1,9.758766174E0
4.145000781E1,-2.489969730E-1,-8.906430602E-1,9.768342972E0
4.147500469E1,-2.585737705E-1,-8.906430602E-1,9.758766174E0
4.150000000E1,-2.681505978E-1,-8.906430602E-1,9.768342972E0
4.152499688E1,-2.585737705E-1,-8.810662031E-1,9.777919769E0
4.154999375E1,-2.681505978E-1,-8.810662031E-1,9.768342972E0
4.157001562E1,-2.777273953E-1,-8.906430602E-1,9.758766174E0
4.159501250E1,-2.489969730E-1,-8.714894056E-1,9.749189377E0
4.162000781E1,-2.489969730E-1,-8.714894056E-1,9.777919769E0
4.164500625E1,-2.585737705E-1,-8.810662031E-1,9.768342972E0
4.167000156E1,-2.489969730E-1,-8.714894056E-1,9.787496567E0
4.169499844E1,-2.585737705E-1,-8.810662031E-1,9.777919769E0
4.171999375E1,-2.298433632E-1,-8.906430602E-1,9.768342972E0
4.174499062E1,-2.394201756E-1,-8.714894056E-1,9.758766174E0
4.176501250E1,-2.489969730E-1,-8.906430602E-1,9.768342972E0
4.179000938E1,-2.585737705E-1,-8.619126081E-1,9.749189377E0
4.181503125E1,-2.873041928E-1,-9.193734527E-1,9.787496567E0
4.184000312E1,-2.681505978E-1,-9.289502501E-1,9.768342972E0
4.186499844E1,-2.394201756E-1,-8.236053586E-1,9.758766174E0
4.188999531E1,-2.489969730E-1,-8.427590132E-1,9.787496567E0
4.191499219E1,-2.394201756E-1,-8.810662031E-1,9.797073364E0
4.193501563E1,-2.202665508E-1,-9.097966552E-1,9.749189377E0
4.196001094E1,-2.394201756E-1,-9.002198577E-1,9.768342972E0
4.198500781E1,-2.394201756E-1,-9.002198577E-1,9.768342972E0
4.201000313E1,-2.873041928E-1,-8.906430602E-1,9.797073364E0
4.203504219E1,-2.489969730E-1,-8.619126081E-1,9.787496567E0
4.205999688E1,-2.202665508E-1,-8.619126081E-1,9.768342972E0
4.208499375E1,-2.489969730E-1,-8.619126081E-1,9.768342972E0
4.210501562E1,-2.777273953E-1,-8.810662031E-1,9.806650162E0
4.213001250E1,-2.585737705E-1,-9.002198577E-1,9.787496567E0
4.215500938E1,-2.585737705E-1,-8.714894056E-1,9.787496567E0
4.218000469E1,-2.585737705E-1,-8.714894056E-1,9.758766174E0
4.220500156E1,-2.394201756E-1,-9.097966552E-1,9.787496567E0
4.222999688E1,-2.585737705E-1,-9.097966552E-1,9.777919769E0
4.225499375E1,-2.202665508E-1,-8.906430602E-1,9.797073364E0
4.227999062E1,-2.681505978E-1,-8.714894056E-1,9.758766174E0
4.230001250E1,-2.681505978E-1,-9.002198577E-1,9.768342972E0
4.232501094E1,-2.489969730E-1,-8.523358107E-1,9.797073364E0
4.235000469E1,-2.681505978E-1,-8.714894056E-1,9.797073364E0
4.237503750E1,-2.585737705E-1,-8.714894056E-1,9.797073364E0
4.239999844E1,-2.489969730E-1,-8.810662031E-1,9.777919769E0
4.242499531E1,-2.777273953E-1,-8.810662031E-1,9.777919769E0
4.244999219E1,-2.585737705E-1,-8.906430602E-1,9.768342972E0
4.247001406E1,-2.394201756E-1,-8.714894056E-1,9.768342972E0
4.249501250E1,-2.681505978E-1,-8.714894056E-1,9.787496567E0
4.252000625E1,-2.489969730E-1,-8.523358107E-1,9.787496567E0
4.254500312E1,-2.585737705E-1,-8.810662031E-1,9.768342972E0
4.257000000E1,-2.681505978E-1,-8.906430602E-1,9.787496567E0
4.259501250E1,-2.681505978E-1,-8.810662031E-1,9.777919769E0
4.261999219E1,-2.585737705E-1,-8.714894056E-1,9.768342972E0
4.264001563E1,-2.585737705E-1,-8.714894056E-1,9.758766174E0
4.266501250E1,-2.585737705E-1,-8.810662031E-1,9.777919769E0
4.269000781E1,-2.489969730E-1,-8.523358107E-1,9.777919769E0
4.271500625E1,-2.585737705E-1,-8.810662031E-1,9.749189377E0
4.274000000E1,-2.585737705E-1,-9.002198577E-1,9.777919769E0
4.276499844E1,-2.681505978E-1,-8.810662031E-1,9.768342972E0
4.278999375E1,-2.777273953E-1,-8.523358107E-1,9.777919769E0
4.281499688E1,-2.585737705E-1,-8.714894056E-1,9.797073364E0
4.283501250E1,-2.681505978E-1,-8.523358107E-1,9.768342972E0
4.285502656E1,-2.585737705E-1,-8.523358107E-1,9.739612579E0
4.288000000E1,-2.681505978E-1,-9.002198577E-1,9.730035782E0
4.290499688E1,-2.777273953E-1,-9.002198577E-1,9.768342972E0
4.292999219E1,-2.777273953E-1,-8.906430602E-1,9.787496567E0
4.295001563E1,-2.202665508E-1,-8.523358107E-1,9.749189377E0
4.297501094E1,-2.489969730E-1,-8.236053586E-1,9.777919769E0
4.300000781E1,-2.585737705E-1,-8.523358107E-1,9.758766174E0
4.302500469E1,-2.585737705E-1,-9.193734527E-1,9.768342972E0
4.305000000E1,-2.777273953E-1,-9.193734527E-1,9.758766174E0
4.307499844E1,-2.777273953E-1,-8.810662031E-1,9.739612579E0
4.309999375E1,-2.681505978E-1,-8.619126081E-1,9.787496567E0
4.312499062E1,-2.202665508E-1,-8.427590132E-1,9.768342972E0
4.314501250E1,-2.202665508E-1,-8.619126081E-1,9.730035782E0
4.317000938E1,-2.681505978E-1,-8.906430602E-1,9.720458984E0
4.319500625E1,-2.681505978E-1,-8.906430602E-1,9.787496567E0
4.321502344E1,-2.394201756E-1,-8.714894056E-1,9.787496567E0
4.323999219E1,-2.298433632E-1,-8.714894056E-1,9.777919769E0
4.326001562E1,-2.394201756E-1,-8.427590132E-1,9.777919769E0
4.328501250E1,-2.777273953E-1,-8.714894056E-1,9.777919769E0
4.331000781E1,-2.394201756E-1,-9.097966552E-1,9.749189377E0
4.333500469E1,-2.585737705E-1,-9.002198577E-1,9.730035782E0
4.336000000E1,-2.585737705E-1,-9.097966552E-1,9.730035782E0
4.338499844E1,-2.489969730E-1,-8.714894056E-1,9.768342972E0
4.340999375E1,-2.585737705E-1,-8.523358107E-1,9.768342972E0
4.343499219E1,-2.585737705E-1,-8.714894056E-1,9.787496567E0
4.345501250E1,-2.585737705E-1,-9.002198577E-1,9.739612579E0
4.348000938E1,-2.489969730E-1,-8.906430602E-1,9.758766174E0
4.350500625E1,-2.489969730E-1,-8.427590132E-1,9.787496567E0
4.353000312E1,-2.394201756E-1,-8.714894056E-1,9.720458984E0
4.355499844E1,-2.489969730E-1,-9.097966552E-1,9.758766174E0
4.357999531E1,-2.489969730E-1,-9.289502501E-1,9.787496567E0
4.360499219E1,-2.394201756E-1,-8.714894056E-1,9.787496567E0
4.362501406E1,-2.489969730E-1,-8.810662031E-1,9.739612579E0
4.365000938E1,-2.489969730E-1,-8.810662031E-1,9.720458984E0
4.367500781E1,-2.489969730E-1,-8.906430602E-1,9.720458984E0
4.370000312E1,-2.777273953E-1,-8.619126081E-1,9.749189377E0
4.372500000E1,-2.489969730E-1,-8.810662031E-1,9.758766174E0
4.374999531E1,-2.489969730E-1,-8.619126081E-1,9.758766174E0
4.377499375E1,-2.489969730E-1,-8.619126081E-1,9.777919769E0
4.379501563E1,-2.298433632E-1,-9.002198577E-1,9.749189377E0
4.382001094E1,-2.489969730E-1,-9.097966552E-1,9.720458984E0
4.384500781E1,-2.681505978E-1,-9.193734527E-1,9.749189377E0
4.387000469E1,-3.160346150E-1,-8.906430602E-1,9.777919769E0
4.389500000E1,-2.777273953E-1,-8.619126081E-1,9.758766174E0
4.391999688E1,-2.394201756E-1,-8.331822157E-1,9.768342972E0
4.394499375E1,-2.489969730E-1,-8.427590132E-1,9.768342972E0
4.396501406E1,-2.394201756E-1,-8.810662031E-1,9.739612579E0
4.399001250E1,-2.298433632E-1,-9.097966552E-1,9.739612579E0
4.401505469E1,-2.489969730E-1,-9.289502501E-1,9.758766174E0
4.404000469E1,-2.777273953E-1,-9.002198577E-1,9.749189377E0
4.406500156E1,-2.681505978E-1,-8.714894056E-1,9.749189377E0
4.408999844E1,-2.777273953E-1,-8.523358107E-1,9.730035782E0
4.411499531E1,-2.489969730E-1,-8.523358107E-1,9.710882187E0
4.413501250E1,-2.394201756E-1,-8.619126081E-1,9.758766174E0
4.416001406E1,-2.489969730E-1,-8.714894056E-1,9.777919769E0
4.418501094E1,-2.681505978E-1,-8.906430602E-1,9.768342972E0
4.421000625E1,-2.681505978E-1,-8.714894056E-1,9.749189377E0
4.423500313E1,-2.394201756E-1,-8.810662031E-1,9.758766174E0
4.425999844E1,-2.394201756E-1,-8.906430602E-1,9.749189377E0
4.428499688E1,-2.394201756E-1,-8.906430602E-1,9.739612579E0
4.430999219E1,-2.489969730E-1,-8.906430602E-1,9.749189377E0
4.433001406E1,-2.777273953E-1,-8.619126081E-1,9.758766174E0
4.435501094E1,-2.873041928E-1,-8.906430602E-1,9.768342972E0
4.438000625E1,-2.585737705E-1,-8.619126081E-1,9.768342972E0
4.440500469E1,-2.681505978E-1,-8.810662031E-1,9.758766174E0
4.443000000E1,-2.394201756E-1,-8.619126081E-1,9.758766174E0
4.445499688E1,-2.585737705E-1,-9.002198577E-1,9.749189377E0
4.447999375E1,-2.585737705E-1,-8.906430602E-1,9.758766174E0
4.450001562E1,-2.489969730E-1,-8.906430602E-1,9.749189377E0
4.452501250E1,-2.585737705E-1,-8.810662031E-1,9.768342972E0
4.455000781E1,-2.394201756E-1,-8.714894056E-1,9.758766174E0
4.457500469E1,-2.777273953E-1,-8.810662031E-1,9.768342972E0
4.460000156E1,-2.681505978E-1,-8.810662031E-1,9.749189377E0
4.462499844E1,-2.681505978E-1,-8.810662031E-1,9.758766174E0
4.464999375E1,-2.394201756E-1,-8.810662031E-1,9.777919769E0
4.467499219E1,-2.585737705E-1,-8.619126081E-1,9.777919769E0
4.469501406E1,-2.489969730E-1,-8.810662031E-1,9.777919769E0
4.472000938E1,-2.394201756E-1,-8.810662031E-1,9.777919769E0
4.474500625E1,-2.585737705E-1,-8.810662031E-1,9.758766174E0
4.477000312E1,-2.681505978E-1,-8.906430602E-1,9.739612579E0
4.479500000E1,-2.489969730E-1,-9.097966552E-1,9.758766174E0
4.481999375E1,-2.394201756E-1,-8.714894056E-1,9.787496567E0
4.484499219E1,-2.489969730E-1,-8.236053586E-1,9.787496567E0
4.486501406E1,-2.585737705E-1,-8.523358107E-1,9.777919769E0
4.489001094E1,-2.394201756E-1,-9.002198577E-1,9.739612579E0
4.491500781E1,-2.585737705E-1,-9.385270476E-1,9.758766174E0
4.494000313E1,-2.777273953E-1,-9.097966552E-1,9.749189377E0
4.496500000E1,-2.777273953E-1,-8.810662031E-1,9.758766174E0
4.498999531E1,-2.681505978E-1,-8.619126081E-1,9.777919769E0
4.501501719E1,-2.585737705E-1,-8.523358107E-1,9.749189377E0
4.503501719E1,-2.394201756E-1,-8.810662031E-1,9.749189377E0
4.506001094E1,-2.585737705E-1,-8.810662031E-1,9.758766174E0
4.508500938E1,-2.489969730E-1,-9.002198577E-1,9.768342972E0
4.511000469E1,-2.394201756E-1,-8.714894056E-1,9.768342972E0
4.513500000E1,-2.489969730E-1,-9.002198577E-1,9.768342972E0
4.515999688E1,-2.489969730E-1,-9.002198577E-1,9.730035782E0
4.518499531E1,-2.394201756E-1,-9.002198577E-1,9.777919769E0
4.520999062E1,-2.394201756E-1,-9.002198577E-1,9.739612579E0
4.523001250E1,-2.585737705E-1,-8.810662031E-1,9.758766174E0
4.525500938E1,-2.873041928E-1,-8.619126081E-1,9.739612579E0
4.528000625E1,-2.394201756E-1,-8.331822157E-1,9.768342972E0
4.530500313E1,-2.489969730E-1,-8.714894056E-1,9.777919769E0
4.532999844E1,-2.489969730E-1,-8.619126081E-1,9.730035782E0
4.535499531E1,-2.394201756E-1,-8.810662031E-1,9.768342972E0
4.537999063E1,-2.394201756E-1,-9.002198577E-1,9.787496567E0
4.540001406E1,-2.489969730E-1,-9.002198577E-1,9.749189377E0
4.542501094E1,-2.489969730E-1,-8.810662031E-1,9.758766174E0
4.545000625E1,-2.585737705E-1,-8.619126081E-1,9.739612579E0
4.547500469E1,-2.681505978E-1,-8.523358107E-1,9.777919769E0
4.550000000E1,-2.681505978E-1,-8.619126081E-1,9.749189377E0
4.552499688E1,-2.681505978E-1,-8.810662031E-1,9.739612579E0
4.554999219E1,-2.489969730E-1,-8.810662031E-1,9.749189377E0
4.557001562E1,-2.394201756E-1,-8.906430602E-1,9.739612579E0
4.559501250E1,-2.489969730E-1,-8.714894056E-1,9.749189377E0
4.561503125E1,-2.298433632E-1,-8.619126081E-1,9.768342972E0
4.563999844E1,-2.394201756E-1,-8.810662031E-1,9.768342972E0
4.566499531E1,-2.298433632E-1,-9.002198577E-1,9.739612579E0
4.568999219E1,-2.394201756E-1,-8.810662031E-1,9.758766174E0
4.571001406E1,-2.585737705E-1,-8.906430602E-1,9.768342972E0
4.573501875E1,-2.777273953E-1,-9.289502501E-1,9.768342972E0
4.576000625E1,-2.585737705E-1,-8.427590132E-1,9.777919769E0
4.578500469E1,-2.681505978E-1,-7.948749661E-1,9.749189377E0
4.581000000E1,-2.298433632E-1,-8.810662031E-1,9.768342972E0
4.583499688E1,-2.106897533E-1,-9.097966552E-1,9.739612579E0
4.585499844E1,-2.394201756E-1,-9.002198577E-1,9.749189377E0
4.587500938E1,-2.394201756E-1,-9.193734527E-1,9.730035782E0
4.590000625E1,-2.681505978E-1,-9.002198577E-1,9.749189377E0
4.592500312E1,-2.681505978E-1,-8.619126081E-1,9.777919769E0
4.594999844E1,-2.585737705E-1,-8.427590132E-1,9.730035782E0
4.597499531E1,-2.489969730E-1,-8.619126081E-1,9.730035782E0
4.599999219E1,-2.489969730E-1,-8.619126081E-1,9.730035782E0
4.602001406E1,-2.585737705E-1,-8.810662031E-1,9.749189377E0
4.604501094E1,-2.585737705E-1,-9.002198577E-1,9.777919769E0
4.607000625E1,-2.585737705E-1,-8.619126081E-1,9.758766174E0
4.609500313E1,-2.777273953E-1,-8.810662031E-1,9.758766174E0
4.612000000E1,-2.489969730E-1,-9.289502501E-1,9.739612579E0
4.614499688E1,-2.298433632E-1,-9.097966552E-1,9.749189377E0
4.616999219E1,-2.585737705E-1,-9.002198577E-1,9.739612579E0
4.619001562E1,-2.681505978E-1,-8.906430602E-1,9.739612579E0
4.621503281E1,-2.585737705E-1,-8.619126081E-1,9.739612579E0
4.624000781E1,-2.489969730E-1,-8.619126081E-1,9.739612579E0
4.626500469E1,-2.489969730E-1,-8.619126081E-1,9.758766174E0
4.629000156E1,-2.681505978E-1,-8.810662031E-1,9.749189377E0
4.631499844E1,-2.681505978E-1,-9.002198577E-1,9.730035782E0
4.633999531E1,-2.394201756E-1,-9.193734527E-1,9.739612579E0
4.636499063E1,-2.394201756E-1,-8.906430602E-1,9.777919769E0
4.638501406E1,-2.394201756E-1,-8.810662031E-1,9.768342972E0
4.641000938E1,-2.298433632E-1,-8.714894056E-1,9.749189377E0
4.643502031E1,-2.585737705E-1,-8.714894056E-1,9.739612579E0
4.646000312E1,-2.777273953E-1,-8.714894056E-1,9.749189377E0
4.648499844E1,-2.777273953E-1,-8.714894056E-1,9.701305389E0
4.650999531E1,-2.777273953E-1,-9.002198577E-1,9.730035782E0
4.653500625E1,-2.298433632E-1,-8.906430602E-1,9.758766174E0
4.655501406E1,-2.298433632E-1,-8.810662031E-1,9.768342972E0
4.657501563E1,-2.394201756E-1,-8.906430602E-1,9.777919769E0
4.660000156E1,-2.298433632E-1,-8.906430602E-1,9.777919769E0
4.662499844E1,-2.298433632E-1,-8.619126081E-1,9.758766174E0
4.664999375E1,-2.585737705E-1,-8.906430602E-1,9.739612579E0
4.667499062E1,-2.873041928E-1,-8.906430602E-1,9.777919769E0
4.669501250E1,-2.489969730E-1,-8.619126081E-1,9.758766174E0
4.672000938E1,-2.489969730E-1,-8.427590132E-1,9.768342972E0
4.674500625E1,-2.873041928E-1,-8.714894056E-1,9.758766174E0
4.677000156E1,-2.585737705E-1,-9.002198577E-1,9.768342972E0
4.679499844E1,-2.585737705E-1,-9.097966552E-1,9.730035782E0
4.681500313E1,-2.777273953E-1,-8.906430602E-1,9.730035782E0
4.683501250E1,-2.777273953E-1,-9.097966552E-1,9.739612579E0
4.686000781E1,-2.394201756E-1,-8.714894056E-1,9.777919769E0
4.688500469E1,-2.106897533E-1,-8.619126081E-1,9.749189377E0
4.691000156E1,-2.394201756E-1,-8.810662031E-1,9.739612579E0
4.693499844E1,-2.298433632E-1,-8.810662031E-1,9.749189377E0
4.695999375E1,-2.585737705E-1,-8.810662031E-1,9.730035782E0
4.698499062E1,-2.585737705E-1,-8.714894056E-1,9.758766174E0
4.700501406E1,-2.585737705E-1,-8.619126081E-1,9.720458984E0
4.703000938E1,-2.681505978E-1,-8.810662031E-1,9.730035782E0
4.705500625E1,-2.585737705E-1,-9.193734527E-1,9.730035782E0
4.708000156E1,-2.585737705E-1,-9.097966552E-1,9.777919769E0
4.710500000E1,-2.585737705E-1,-9.097966552E-1,9.749189377E0
4.712999531E1,-2.489969730E-1,-8.714894056E-1,9.768342972E0
4.715499219E1,-2.394201756E-1,-8.714894056E-1,9.739612579E0
4.717501406E1,-2.202665508E-1,-8.810662031E-1,9.758766174E0
4.720001094E1,-2.585737705E-1,-8.810662031E-1,9.777919769E0
4.722500781E1,-2.585737705E-1,-8.906430602E-1,9.768342972E0
4.725000313E1,-2.585737705E-1,-8.810662031E-1,9.739612579E0
4.727500000E1,-2.585737705E-1,-8.810662031E-1,9.720458984E0
4.729999688E1,-2.489969730E-1,-8.906430602E-1,9.768342972E0
4.732499375E1,-2.489969730E-1,-9.002198577E-1,9.749189377E0
4.734501562E1,-2.873041928E-1,-9.002198577E-1,9.749189377E0
4.737001094E1,-2.681505978E-1,-8.714894056E-1,9.739612579E0
4.739500781E1,-2.777273953E-1,-8.810662031E-1,9.739612579E0
4.741502500E1,-2.777273953E-1,-8.810662031E-1,9.749189377E0
4.743999531E1,-2.394201756E-1,-9.002198577E-1,9.739612579E0
4.746499219E1,-2.489969730E-1,-8.906430602E-1,9.758766174E0
4.748501406E1,-2.298433632E-1,-8.810662031E-1,9.758766174E0
4.751001094E1,-2.298433632E-1,-9.097966552E-1,9.749189377E0
4.753500625E1,-2.298433632E-1,-8.810662031E-1,9.749189377E0
4.756000312E1,-2.489969730E-1,-9.097966552E-1,9.730035782E0
4.758500000E1,-3.064578176E-1,-9.385270476E-1,9.758766174E0
4.760999688E1,-2.585737705E-1,-8.810662031E-1,9.768342972E0
4.763499375E1,-2.681505978E-1,-8.236053586E-1,9.777919769E0
4.765505938E1,-2.585737705E-1,-8.236053586E-1,9.777919769E0
4.768001094E1,-2.394201756E-1,-8.619126081E-1,9.739612579E0
4.770500938E1,-2.394201756E-1,-9.097966552E-1,9.701305389E0
4.773000469E1,-2.489969730E-1,-9.289502501E-1,9.710882187E0
4.775500156E1,-2.489969730E-1,-8.906430602E-1,9.758766174E0
4.777999688E1,-2.394201756E-1,-8.619126081E-1,9.777919769E0
4.780499375E1,-2.394201756E-1,-8.427590132E-1,9.749189377E0
4.782999062E1,-2.298433632E-1,-8.714894056E-1,9.739612579E0
4.785001250E1,-2.681505978E-1,-8.810662031E-1,9.730035782E0
4.787500938E1,-2.681505978E-1,-8.810662031E-1,9.749189377E0
4.789501406E1,-2.777273953E-1,-9.097966552E-1,9.768342972E0
4.791999688E1,-2.585737705E-1,-8.714894056E-1,9.758766174E0
4.794499375E1,-2.489969730E-1,-8.714894056E-1,9.777919769E0
4.796501562E1,-2.585737705E-1,-8.906430602E-1,9.777919769E0
4.799001094E1,-2.394201756E-1,-8.906430602E-1,9.739612579E0
4.801502812E1,-2.489969730E-1,-9.193734527E-1,9.739612579E0
4.803503438E1,-2.585737705E-1,-9.097966552E-1,9.768342972E0
4.805999531E1,-2.681505978E-1,-8.619126081E-1,9.777919769E0
4.808499062E1,-2.681505978E-1,-8.619126081E-1,9.739612579E0
4.810501406E1,-2.681505978E-1,-8.427590132E-1,9.768342972E0
4.813001094E1,-2.777273953E-1,-8.906430602E-1,9.758766174E0
4.815500781E1,-2.489969730E-1,-8.714894056E-1,9.768342972E0
4.818000313E1,-2.585737705E-1,-8.714894056E-1,9.739612579E0
4.820500000E1,-2.394201756E-1,-8.906430602E-1,9.758766174E0
