"Time (s)","Linear Acceleration x (m/s^2)","Linear Acceleration y (m/s^2)","Linear Acceleration z (m/s^2)"
1.498437500E-2,-2.429999970E-2,-1.213999987E-1,-1.912999898E-1
3.500625000E-2,2.719999850E-2,-1.292999983E-1,-2.188999951E-1
6.500937500E-2,1.659999937E-1,7.999999449E-3,-1.604000032E-1
9.501093800E-2,2.755999863E-1,-7.959999889E-2,-1.233999953E-1
1.250234380E-1,3.168999851E-1,8.999999845E-4,3.269999921E-1
1.550156250E-1,4.682999849E-1,8.190000057E-2,-9.849999845E-2
1.849859380E-1,3.516999781E-1,-2.101999968E-1,-2.651999891E-1
2.050078130E-1,2.310999930E-1,-1.925999969E-1,-1.951999962E-1
2.350093750E-1,2.282999903E-1,-2.137999982E-1,-2.516999841E-1
2.650125000E-1,8.219999820E-2,-2.818000019E-1,-1.898999959E-1
2.950140630E-1,6.549999863E-2,-8.549999446E-2,8.739999682E-2
3.249843750E-1,-1.437000036E-1,1.863999963E-1,-3.711999953E-1
3.500125000E-1,-5.580999851E-1,3.484999835E-1,-5.612999797E-1
3.800140630E-1,-8.849999905E-1,1.692999899E-1,-6.954999566E-1
4.099843750E-1,-1.225000024E0,-3.260000050E-2,-7.549999952E-1
4.300078130E-1,-1.108299971E0,-1.180000007E-1,-4.526999891E-1
4.600093750E-1,-3.522000015E-1,2.053999901E-1,-1.173999980E-1
4.900109380E-1,1.559999958E-2,6.732999682E-1,-1.466999948E-1
5.200140630E-1,2.578999996E-1,9.000999928E-1,1.999999881E-1
5.500156250E-1,4.546999931E-1,1.592299938E0,8.869999647E-2
5.799859380E-1,8.069999814E-1,2.028300047E0,3.008999825E-1
6.000078130E-1,8.382999897E-1,2.096899986E0,2.708999813E-1
6.300093750E-1,6.448999643E-1,2.016000032E0,3.930999935E-1
6.600125000E-1,4.296000004E-1,1.998499990E0,3.213000000E-1
6.900140630E-1,1.763999909E-1,2.411000013E0,3.209999800E-1
7.199859380E-1,-1.169999968E-2,2.291399956E0,2.685999870E-1
7.400078130E-1,-4.010000080E-2,2.211699963E0,2.427999973E-1
7.700093750E-1,-7.299999893E-2,2.309099913E0,3.310000002E-1
8.000109380E-1,-1.541000009E-1,2.392899990E0,2.798999846E-1
8.300125000E-1,-2.173999995E-1,2.731299877E0,3.343999982E-1
8.600156250E-1,-1.421999931E-1,2.617199898E0,4.387999773E-1
8.899859380E-1,-1.679999977E-1,2.747099876E0,4.465999901E-1
9.100093750E-1,-1.939999908E-1,2.823599815E0,4.621999860E-1
9.400109380E-1,-5.929999799E-2,2.744699955E0,4.646999836E-1
9.700125000E-1,2.139999904E-2,2.729699850E0,5.590999722E-1
1.000014063E0,7.039999962E-2,2.589999914E0,5.576999784E-1
1.029985938E0,1.614999920E-1,2.746099949E0,5.414000154E-1
1.050007813E0,1.990000010E-1,2.785799980E0,5.095999837E-1
1.080009375E0,1.854999959E-1,2.749799967E0,5.083999634E-1
1.110010938E0,1.266999990E-1,2.886699915E0,6.098999977E-1
1.140012500E0,2.559999935E-2,2.869099855E0,5.264999866E-1
1.170015625E0,-5.759999901E-2,3.006199837E0,5.464999676E-1
1.199985938E0,-1.526999921E-1,2.847499847E0,4.720000029E-1
1.220009375E0,-1.723999977E-1,2.819399834E0,5.123000145E-1
1.250010938E0,-1.433999985E-1,2.857800007E0,5.083000064E-1
1.280012500E0,-1.083999947E-1,2.760099888E0,4.971999824E-1
1.310014063E0,-7.710000128E-2,2.863299847E0,5.489999652E-1
1.339985938E0,2.899999917E-2,2.848999977E0,4.817999899E-1
1.360007813E0,3.659999743E-2,2.862900019E0,5.029000044E-1
1.390009375E0,6.039999798E-2,2.983999968E0,5.647999644E-1
1.420012500E0,5.529999733E-2,2.866999865E0,5.349000096E-1
1.450014063E0,6.870000064E-2,3.008800030E0,5.680999756E-1
1.479984375E0,3.819999844E-2,2.856499910E0,5.597999692E-1
1.500006250E0,4.869999737E-2,2.788699865E0,5.404999852E-1
1.530007813E0,7.699999958E-3,2.819200039E0,5.672000051E-1
1.560010938E0,1.539999992E-2,2.722699881E0,5.941999555E-1
1.590012500E0,-5.269999802E-2,2.861500025E0,6.407999992E-1
1.620015625E0,-4.669999704E-2,2.804299831E0,6.261999607E-1
1.649985938E0,-2.620000020E-2,2.881199837E0,6.128000021E-1
1.670007813E0,-4.299999680E-3,2.857800007E0,6.505999565E-1
1.700009375E0,3.900000080E-2,2.814399958E0,6.527999640E-1
1.730012500E0,6.899999827E-2,2.903100014E0,6.943999529E-1
1.760014063E0,7.729999721E-2,2.746599913E0,6.452999711E-1
1.789984375E0,1.129999980E-1,2.788699865E0,6.585999727E-1
1.810006250E0,1.057999954E-1,2.797499895E0,6.680999994E-1
1.840009375E0,9.659999609E-2,2.718999863E0,6.387999654E-1
1.870010938E0,9.719999880E-2,2.793900013E0,6.535999775E-1
1.900012500E0,9.479999542E-2,2.736199856E0,6.193000078E-1
1.930015625E0,8.649999648E-2,2.813999891E0,6.509000063E-1
1.959985938E0,7.349999994E-2,2.731199980E0,5.949000120E-1
1.980007813E0,1.124999970E-1,2.734400034E0,6.164000034E-1
2.010009375E0,1.317999959E-1,2.800699949E0,6.653999686E-1
2.040012500E0,1.667999923E-1,2.727299929E0,6.424999833E-1
2.070014063E0,1.410000026E-1,2.832099915E0,6.424999833E-1
2.099984375E0,1.464999914E-1,2.718899965E0,5.958999991E-1
2.120006250E0,1.436000019E-1,2.685400009E0,6.241999865E-1
2.150009375E0,1.655000001E-1,2.786000013E0,6.772999763E-1
2.180010938E0,2.190999985E-1,2.702199936E0,6.406999826E-1
2.210012500E0,2.445999980E-1,2.746799946E0,6.414999962E-1
2.240015625E0,2.157000005E-1,2.647199869E0,6.161000133E-1
2.269985938E0,2.140000015E-1,2.771199942E0,6.624999642E-1
2.290007813E0,2.228000015E-1,2.792899847E0,6.405000091E-1
2.320010938E0,2.135999948E-1,2.602999926E0,5.647000074E-1
2.350012500E0,1.975999922E-1,2.464900017E0,5.412999988E-1
2.380014063E0,2.050999999E-1,2.297299862E0,4.912999868E-1
2.409984375E0,1.699000001E-1,2.235199928E0,4.828999937E-1
2.430007813E0,1.835999936E-1,2.144599915E0,4.266999960E-1
2.460009375E0,1.902999878E-1,1.970600009E0,3.577999771E-1
2.490010938E0,1.930999905E-1,1.887399912E0,3.745999932E-1
2.520014063E0,1.700999886E-1,1.782899976E0,3.030000031E-1
2.550015625E0,1.407999992E-1,1.701200008E0,3.113999963E-1
2.579985938E0,1.401999891E-1,1.532499909E0,3.254999816E-1
2.600007813E0,1.347000003E-1,1.508999944E0,3.093000054E-1
2.630010938E0,1.199999973E-1,1.448799968E0,2.942000031E-1
2.660012500E0,1.102999970E-1,1.343699932E0,2.663999796E-1
2.690014063E0,1.070999950E-1,1.260399938E0,2.048999965E-1
2.719985938E0,8.819999546E-2,1.177299976E0,1.818999946E-1
2.740007813E0,8.449999988E-2,1.100299954E0,2.206999958E-1
2.770009375E0,1.198999956E-1,1.083799958E0,1.914999932E-1
2.800010938E0,1.015999988E-1,1.015399933E0,1.735000014E-1
2.830012500E0,9.690000117E-2,9.914999604E-1,1.649999917E-1
2.860015625E0,1.164999977E-1,8.702999949E-1,1.296999902E-1
2.889985938E0,7.310000062E-2,7.670999765E-1,1.428999901E-1
2.910007813E0,7.079999894E-2,7.536000013E-1,1.468999982E-1
2.940010938E0,7.440000027E-2,7.274999619E-1,1.061000004E-1
2.970012500E0,6.219999865E-2,7.049999833E-1,1.005999967E-1
3.000014063E0,7.499999553E-2,6.632999778E-1,1.002999991E-1
3.029985938E0,7.180000097E-2,6.060000062E-1,1.154999956E-1
3.050006250E0,4.259999841E-2,5.956000090E-1,7.279999554E-2
3.080009375E0,2.080000006E-2,5.363000035E-1,5.559999868E-2
3.110010938E0,6.819999963E-2,5.040999651E-1,5.229999870E-2
3.140014063E0,6.289999932E-2,4.523999989E-1,5.599999800E-2
3.170015625E0,6.019999832E-2,4.429000020E-1,4.339999706E-2
3.199985938E0,5.570000038E-2,4.239999950E-1,8.599999361E-3
3.220007813E0,2.529999986E-2,4.057999849E-1,-3.499999875E-3
3.250010938E0,2.379999869E-2,3.605999947E-1,3.350000083E-2
3.280012500E0,3.049999848E-2,3.292999864E-1,1.960000023E-2
3.310014063E0,1.950000040E-2,3.439999819E-1,3.729999810E-2
3.339985938E0,5.570000038E-2,3.237999976E-1,1.379999984E-2
3.360007813E0,-2.799999900E-3,3.188999891E-1,2.300000051E-3
3.390009375E0,2.499999851E-2,2.486999929E-1,-1.860000007E-2
3.420010938E0,5.099999905E-2,2.468999922E-1,2.759999968E-2
3.450014063E0,5.769999698E-2,2.926000059E-1,2.599999867E-2
3.480015625E0,4.419999942E-2,2.575999796E-1,1.310000010E-2
3.509985938E0,6.369999796E-2,1.984999925E-1,-7.499999832E-3
3.530009375E0,2.249999903E-2,1.607999951E-1,2.080000006E-2
3.560010938E0,-7.999999449E-3,1.643999964E-1,-1.609999873E-2
3.590012500E0,-7.599999662E-3,1.759999990E-1,2.499999944E-3
3.620014063E0,2.119999938E-2,1.784999967E-1,-8.999999613E-3
3.649985938E0,2.080000006E-2,1.908999979E-1,-1.960000023E-2
3.670007813E0,1.989999972E-2,1.541000009E-1,-1.059999969E-2
3.700007813E0,1.829999872E-2,1.596999913E-1,-2.300000051E-3
3.730010938E0,2.759999968E-2,1.231999993E-1,2.620000020E-2
3.760014063E0,2.649999969E-2,1.031999961E-1,1.529999916E-2
3.790015625E0,5.389999971E-2,1.286000013E-1,-2.429999970E-2
3.819985938E0,-1.559999958E-2,1.362999976E-1,-5.489999801E-2
3.840009375E0,-2.419999987E-2,7.409999520E-2,-1.599999890E-2
3.870010938E0,5.799999926E-3,4.270000011E-2,4.259999841E-2
3.900012500E0,3.280000016E-2,-2.669999935E-2,2.279999852E-2
3.930014063E0,5.089999735E-2,2.329999954E-2,4.239999875E-2
3.959985938E0,4.659999907E-2,1.140999943E-1,-1.719999872E-2
3.980007813E0,3.519999981E-2,1.089999974E-1,2.129999921E-2
4.010009375E0,3.799999831E-3,7.599999756E-2,2.089999989E-2
4.040010938E0,-4.329999909E-2,1.439999975E-2,-8.599999361E-3
4.070014063E0,-5.150000006E-2,4.259999841E-2,2.759999968E-2
4.100014063E0,-9.499999695E-3,1.508999914E-1,-2.499999944E-3
4.129985938E0,-6.489999592E-2,1.241999939E-1,-3.000000026E-3
4.150009375E0,-1.190999970E-1,5.069999769E-2,-1.299999934E-2
4.180010938E0,-2.589999884E-2,2.819999866E-2,2.609999850E-2
4.210012500E0,-1.539999992E-2,6.529999524E-2,-3.280000016E-2
4.240014063E0,4.699999932E-3,5.059999973E-2,-3.899999894E-3
4.269985938E0,6.250000000E-2,3.959999979E-2,-5.309999734E-2
4.290007813E0,9.899999946E-2,2.899999917E-2,-1.399999950E-2
4.320009375E0,5.379999802E-2,-3.959999979E-2,-2.410000004E-2
4.350014063E0,-1.409999933E-2,-1.218999997E-1,-1.370000001E-2
4.380014063E0,1.539999992E-2,-2.789999917E-2,4.559999704E-2
4.409984375E0,1.292999983E-1,8.649999648E-2,1.569999941E-2
4.430006250E0,2.478999943E-1,9.169999510E-2,-1.449999958E-2
4.460007813E0,2.987000048E-1,-5.499999970E-2,1.359999925E-2
4.490010938E0,2.478999943E-1,-3.280000016E-2,1.212999970E-1
4.520012500E0,3.229999915E-2,9.899999946E-2,1.105999947E-1
4.550015625E0,-1.017999947E-1,1.031999961E-1,-8.590000123E-2
4.579984375E0,-3.407000005E-1,9.559999406E-2,-2.325999886E-1
4.600007813E0,-3.905999959E-1,3.579999879E-2,-1.827999949E-1
4.630009375E0,-3.150999844E-1,-7.059999555E-2,7.299999893E-2
4.660010938E0,-1.405999959E-1,-4.719999805E-2,1.623999923E-1
4.690014063E0,3.610000014E-2,2.039999887E-2,-2.101999968E-1
4.719984375E0,6.549999863E-2,-1.697999984E-1,-1.601999998E-1
4.740007813E0,1.825999916E-1,1.049999986E-2,3.529999778E-2
4.770009375E0,4.373999834E-1,6.204000115E-1,2.099999934E-1
4.800009375E0,5.196999907E-1,8.920999765E-1,1.271999925E-1
4.830014063E0,7.141999602E-1,9.613999724E-1,1.629000008E-1
4.860014063E0,7.825999856E-1,8.557999730E-1,2.401999980E-1
4.889985938E0,7.780999541E-1,1.002499938E0,2.830999792E-1
4.910007813E0,7.157999873E-1,1.084599972E0,2.782999873E-1
4.940009375E0,6.683999896E-1,1.120100021E0,1.806999892E-1
4.970012500E0,6.941999793E-1,1.222700000E0,8.619999886E-2
5.000014063E0,5.910999775E-1,1.189899921E0,1.589999944E-1
5.029984375E0,6.308000088E-1,1.353299975E0,2.856999934E-1
5.050006250E0,6.834999919E-1,1.448599935E0,2.912999988E-1
5.080009375E0,7.364000082E-1,1.449999928E0,2.302999943E-1
5.110009375E0,8.564999700E-1,1.448300004E0,2.766000032E-1
5.140012500E0,8.789999485E-1,1.294700027E0,2.951999903E-1
5.170015625E0,9.563999772E-1,1.421499968E0,3.395999968E-1
5.199985938E0,9.576999545E-1,1.455399990E0,3.067999780E-1
5.220007813E0,9.457999468E-1,1.458599925E0,2.802000046E-1
5.250009375E0,9.853999615E-1,1.477899909E0,3.303000033E-1
5.280010938E0,9.662999511E-1,1.417099953E0,3.556999862E-1
5.310014063E0,1.055699944E0,1.536599994E0,3.489999771E-1
5.339985938E0,9.932000041E-1,1.506699920E0,3.200999796E-1
5.360007813E0,9.554999471E-1,1.480599999E0,2.818999887E-1
5.390009375E0,9.484999776E-1,1.515799999E0,2.800999880E-1
5.420010938E0,8.679999709E-1,1.402699947E0,2.624999881E-1
5.450012500E0,7.935000062E-1,1.508700013E0,3.667999804E-1
5.480015625E0,7.748000026E-1,1.535200000E0,3.294000030E-1
5.509985938E0,8.629999757E-1,1.585999966E0,3.470000029E-1
5.530007813E0,9.340999722E-1,1.533699989E0,3.366999924E-1
5.560009375E0,9.236999750E-1,1.441299915E0,2.509999871E-1
5.590012500E0,9.548999667E-1,1.469499946E0,2.570999861E-1
5.620014063E0,9.138000011E-1,1.425199986E0,3.179999888E-1
5.649984375E0,9.560999870E-1,1.507699966E0,3.427000046E-1
5.670007813E0,9.465999603E-1,1.521099925E0,3.313999772E-1
5.700009375E0,8.955999613E-1,1.463499904E0,2.935999930E-1
5.730010938E0,9.030999541E-1,1.472399950E0,3.064000010E-1
5.760014063E0,8.519999981E-1,1.416800022E0,2.691999972E-1
5.790015625E0,9.249999523E-1,1.458799958E0,3.192999959E-1
5.819985938E0,9.129999876E-1,1.383700013E0,3.115999997E-1
5.840007813E0,9.213999510E-1,1.394199967E0,3.093000054E-1
5.870010938E0,9.492999911E-1,1.437699914E0,2.915000021E-1
5.900012500E0,8.396999836E-1,1.370100021E0,2.737999856E-1
5.930014063E0,8.937999606E-1,1.415399909E0,2.570999861E-1
5.959984375E0,8.732999563E-1,1.348299980E0,2.888000011E-1
5.980007813E0,8.824999928E-1,1.349399924E0,3.062999845E-1
6.010009375E0,9.172999859E-1,1.347399950E0,3.059999943E-1
6.040010938E0,8.913999796E-1,1.243899941E0,2.692999840E-1
6.070012500E0,9.034999609E-1,1.334800005E0,2.967000008E-1
6.100015625E0,8.694999814E-1,1.285399914E0,2.691999972E-1
6.129985938E0,8.203999996E-1,1.241899967E0,2.559999824E-1
6.150007813E0,7.821999788E-1,1.198499918E0,2.236000001E-1
6.180010938E0,7.152999640E-1,1.071399927E0,2.312999964E-1
6.210012500E0,7.077999711E-1,1.012899995E0,2.301999927E-1
6.240014063E0,6.832999587E-1,9.750999808E-1,2.388999909E-1
6.269985938E0,6.470999718E-1,9.844999909E-1,2.090999931E-1
6.290007813E0,6.218999624E-1,9.262999892E-1,1.601999998E-1
6.320009375E0,5.837000012E-1,8.359000087E-1,1.036999971E-1
6.350010938E0,5.214999914E-1,7.820000052E-1,1.054999977E-1
6.380012500E0,4.693000019E-1,7.285000086E-1,1.793999970E-1
6.410015625E0,4.786999822E-1,6.980999708E-1,1.727000028E-1
6.439985938E0,4.763000011E-1,6.319999695E-1,1.114000008E-1
6.460007813E0,4.654999971E-1,6.054999828E-1,9.589999914E-2
6.490010938E0,3.976999819E-1,6.078999639E-1,1.099999994E-1
6.520012500E0,3.276000023E-1,5.766000152E-1,8.060000092E-2
6.550014063E0,2.944000065E-1,5.332999825E-1,1.056999937E-1
6.579985938E0,3.154999912E-1,4.887999892E-1,9.759999812E-2
6.600007813E0,3.113999963E-1,4.397999942E-1,9.399999678E-2
6.630009375E0,3.073999882E-1,3.922999799E-1,8.089999855E-2
6.660010938E0,2.919999957E-1,3.869999945E-1,8.449999988E-2
6.690014063E0,2.696999907E-1,3.801999986E-1,5.219999701E-2
6.720015625E0,2.366999984E-1,3.664999902E-1,7.609999925E-2
6.749985938E0,2.255999893E-1,3.224999905E-1,6.379999965E-2
6.770007813E0,2.268999964E-1,3.271999955E-1,8.109999448E-2
6.800010938E0,1.893000007E-1,3.084999919E-1,4.729999974E-2
6.830012500E0,1.712999940E-1,2.763999999E-1,5.519999936E-2
6.860015625E0,1.659999937E-1,2.624000013E-1,4.189999774E-2
6.889985938E0,1.587999910E-1,1.920999885E-1,2.649999969E-2
6.910007813E0,1.508999914E-1,1.941999942E-1,5.460000038E-2
6.940009375E0,1.467999965E-1,2.795000076E-1,8.079999685E-2
6.970010938E0,1.407999992E-1,2.386999875E-1,8.999999845E-4
7.000014063E0,1.295000017E-1,1.274999976E-1,8.700000122E-3
7.030015625E0,1.335999966E-1,1.973000020E-1,6.639999896E-2
7.059985938E0,1.136000007E-1,1.615999937E-1,2.499999851E-2
7.080009375E0,8.980000019E-2,1.167999953E-1,6.340000033E-2
7.110010938E0,1.232999936E-1,2.154999971E-1,6.219999865E-2
7.140012500E0,1.122999936E-1,1.573999971E-1,3.039999865E-2
7.170015625E0,7.750000060E-2,5.629999936E-2,3.999999899E-4
7.199985938E0,7.939999551E-2,5.109999701E-2,-2.999999851E-4
7.220007813E0,5.719999969E-2,1.238999963E-1,-9.999999311E-4
7.250009375E0,2.659999952E-2,1.465999931E-1,5.700000003E-2
7.280010938E0,4.259999841E-2,1.159999967E-1,1.649999991E-2
7.310014063E0,6.969999522E-2,1.006999984E-1,6.099999882E-3
7.339985938E0,9.119999409E-2,9.099999815E-2,2.449999936E-2
7.360006250E0,1.057999954E-1,7.750000060E-2,2.389999852E-2
7.390009375E0,8.289999515E-2,9.719999880E-2,1.159999985E-2
7.420010938E0,7.569999993E-2,7.909999788E-2,-1.879999973E-2
7.450012500E0,5.319999903E-2,6.719999760E-2,-1.909999922E-2
7.480015625E0,2.099999972E-2,7.099999487E-2,-3.940000013E-2
7.509985938E0,9.999999311E-4,6.809999794E-2,-4.949999973E-2
7.530007813E0,1.079999935E-2,5.629999936E-2,-3.989999741E-2
7.560009375E0,2.909999900E-2,7.039999962E-2,-2.080000006E-2
7.590012500E0,2.869999968E-2,4.859999940E-2,-2.109999955E-2
7.620014063E0,4.539999738E-2,4.369999841E-2,-1.999999862E-3
7.649984375E0,5.329999700E-2,4.279999807E-2,-1.200000010E-2
7.670006250E0,6.030000001E-2,5.119999871E-2,-2.199999988E-2
7.700007813E0,5.559999868E-2,4.789999872E-2,-2.249999903E-2
7.730010938E0,3.309999779E-2,6.499999762E-2,-3.199999919E-3
7.760012500E0,3.039999865E-2,6.049999967E-2,-3.309999779E-2
7.790015625E0,9.999999311E-4,4.859999940E-2,-3.329999745E-2
7.819985938E0,-1.799999923E-2,2.620000020E-2,-6.300000101E-2
7.840007813E0,2.960000001E-2,6.399999838E-3,-4.339999706E-2
7.870010938E0,-1.999999949E-4,1.519999932E-2,-2.389999852E-2
7.900012500E0,8.200000040E-3,-3.399999812E-3,-2.209999971E-2
7.930014063E0,6.899999920E-3,3.549999744E-2,-2.499999944E-3
7.959984375E0,3.289999813E-2,1.050999984E-1,-2.309999987E-2
7.980006250E0,1.269999985E-2,7.239999622E-2,-1.359999925E-2
8.010009375E0,3.089999966E-2,3.799999831E-3,-6.269999593E-2
8.040010938E0,2.879999951E-2,-2.300000004E-2,-1.349999942E-2
8.070012500E0,-1.109999977E-2,-1.249999925E-2,-2.319999970E-2
8.100015625E0,8.999999613E-3,4.380000010E-2,-3.319999948E-2
8.129985938E0,-1.129999943E-2,5.229999870E-2,-2.359999903E-2
8.150007813E0,1.769999973E-2,4.079999775E-2,-5.319999903E-2
8.180009375E0,6.599999964E-3,1.999999955E-2,-6.309999526E-2
8.210012500E0,-2.899999963E-3,-9.099999443E-3,-5.329999700E-2
8.240014063E0,-3.000000026E-3,2.789999917E-2,-1.429999992E-2
8.269984375E0,1.630000025E-2,3.529999778E-2,-3.409999982E-2
8.290006250E0,1.640000008E-2,-1.379999984E-2,-4.389999807E-2
8.320009375E0,-2.139999904E-2,-1.219999976E-2,-6.329999864E-2
8.350012500E0,-1.599999960E-3,2.589999884E-2,-6.340000033E-2
8.380012500E0,-2.939999849E-2,2.459999919E-2,-5.370000005E-2
8.410015625E0,-1.699999906E-3,-1.860000007E-2,9.699999355E-3
8.439985938E0,7.199999876E-3,-2.609999850E-2,2.950000018E-2
8.460007813E0,-2.399999881E-3,1.239999942E-2,2.939999849E-2
8.490010938E0,3.680000082E-2,2.159999870E-2,2.939999849E-2
8.520012500E0,-2.159999870E-2,1.979999989E-2,-9.899999946E-3
8.550014063E0,8.200000040E-3,1.819999889E-2,-1.999999949E-4
8.579984375E0,-2.009999938E-2,1.609999873E-2,-3.999999899E-4
8.600007813E0,-1.919999905E-2,-1.260000002E-2,-2.999999851E-4
8.630009375E0,-9.399999864E-3,-2.129999921E-2,9.499999695E-3
8.660010938E0,-8.200000040E-3,-1.999999862E-3,-9.999999776E-3
8.690012500E0,1.169999968E-2,-1.399999950E-3,-3.929999843E-2
8.720015625E0,1.799999969E-3,2.639999986E-2,-1.999999949E-4
8.749985938E0,3.999999899E-4,-1.289999951E-2,-1.009999961E-2
8.770007813E0,-8.899999782E-3,-2.219999954E-2,1.929999888E-2
8.800010938E0,1.950000040E-2,8.100000210E-3,9.499999695E-3
8.830012500E0,1.999999949E-4,2.589999884E-2,1.919999905E-2
8.860014063E0,1.999999949E-4,2.359999903E-2,-2.019999921E-2
8.889984375E0,1.929999888E-2,-3.599999845E-2,-2.699999837E-3
8.910007813E0,9.099999443E-3,-4.549999908E-2,7.100000046E-3
8.940009375E0,-9.499999695E-3,-4.799999762E-3,7.199999876E-3
8.970010938E0,-1.809999906E-2,2.369999886E-2,4.639999941E-2
9.000014063E0,2.939999849E-2,2.199999988E-2,6.999999750E-3
9.030015625E0,1.960000023E-2,2.300000051E-3,6.999999750E-3
9.059985938E0,8.100000210E-3,1.069999952E-2,-2.899999963E-3
9.080007813E0,7.799999788E-3,-8.399999700E-3,-2.249999903E-2
9.110010938E0,-1.209999993E-2,-1.779999956E-2,1.659999974E-2
9.140012500E0,-2.049999870E-2,-1.649999991E-2,3.639999777E-2
9.170014063E0,-2.009999938E-2,3.199999919E-3,6.999999750E-3
9.199985938E0,-9.399999864E-3,-5.599999800E-3,7.100000046E-3
9.220007813E0,-2.779999934E-2,-1.480000000E-2,2.679999918E-2
9.250009375E0,-1.759999990E-2,2.419999987E-2,-2.499999944E-3
9.280010938E0,1.150000002E-2,2.899999963E-3,2.669999935E-2
9.310014063E0,-8.499999531E-3,2.699999837E-3,1.679999940E-2
9.340015625E0,1.970000006E-2,1.699999906E-3,3.629999980E-2
9.369985938E0,1.960000023E-2,-2.769999951E-2,1.669999957E-2
9.390009375E0,8.999999613E-3,-8.399999700E-3,-3.999999899E-4
9.420010938E0,-1.899999916E-3,1.500000013E-3,-4.999999655E-4
9.450012500E0,2.699999884E-2,1.799999969E-3,2.889999934E-2
9.480014063E0,7.599999662E-3,-4.439999908E-2,9.499999695E-3
9.509985938E0,2.589999884E-2,-4.299999774E-2,5.859999731E-2
9.530006250E0,-1.399999950E-2,-2.309999987E-2,6.839999557E-2
9.560009375E0,-1.249999925E-2,-2.139999904E-2,2.939999849E-2
9.590010938E0,-5.069999769E-2,4.449999705E-2,9.599999525E-3
9.620014063E0,-5.519999936E-2,6.819999963E-2,-3.969999775E-2
9.650015625E0,-4.250000045E-2,6.999999750E-3,-4.959999770E-2
9.679985938E0,-8.999999845E-4,-1.144999936E-1,-9.800000116E-3
9.700009375E0,2.709999867E-2,-1.283999979E-1,3.959999979E-2
9.730010938E0,6.329999864E-2,5.959999934E-2,9.849999845E-2
9.760012500E0,2.199999988E-3,1.283999979E-1,5.839999765E-2
9.790014063E0,-3.480000049E-2,5.680000037E-2,-4.959999770E-2
9.819985938E0,-4.219999909E-2,-2.999999933E-2,-8.859999478E-2
9.840007813E0,-5.889999866E-2,-5.659999698E-2,-1.960000023E-2
9.870009375E0,-2.779999934E-2,-2.529999986E-2,5.889999866E-2
9.900010938E0,3.869999945E-2,-5.299999844E-3,5.889999866E-2
9.930014063E0,3.599999845E-2,1.379999984E-2,1.960000023E-2
9.960015625E0,5.029999837E-2,-5.299999844E-3,9.599999525E-3
9.989985938E0,2.809999883E-2,-1.480000000E-2,-2.960000001E-2
1.001000938E1,1.699999906E-2,1.389999967E-2,-9.999999776E-3
1.004001094E1,-3.199999919E-3,2.979999967E-2,6.799999624E-2
1.007001250E1,-1.299999934E-2,-8.599999361E-3,5.819999799E-2
1.010001406E1,-3.109999932E-2,-8.109999448E-2,2.939999849E-2
1.012998594E1,-2.499999944E-3,1.769999973E-2,-2.929999866E-2
1.015000781E1,6.899999920E-3,1.699999906E-2,-3.920000046E-2
1.018000938E1,6.000000052E-3,-1.249999925E-2,-4.899999872E-2
1.021001250E1,-1.429999992E-2,-1.139999926E-2,6.859999895E-2
1.024001406E1,-1.279999968E-2,2.499999851E-2,4.879999906E-2
1.026998438E1,-1.059999969E-2,2.449999936E-2,6.839999557E-2
1.029000625E1,7.999999798E-4,1.209999993E-2,2.899999917E-2
1.032000938E1,1.500000013E-3,-9.200000204E-3,-3.969999775E-2
1.035001094E1,4.010000080E-2,-4.369999841E-2,-2.799999900E-3
1.038001250E1,2.819999866E-2,-2.109999955E-2,-2.219999954E-2
1.041001562E1,-1.500000013E-3,-1.079999935E-2,-2.600000007E-3
1.043998438E1,-9.999999776E-3,7.799999788E-3,2.669999935E-2
1.046000781E1,-1.999999949E-4,7.400000002E-3,1.689999923E-2
1.049000938E1,9.999999747E-5,1.559999958E-2,-3.219999745E-2
1.052001250E1,9.999999311E-4,-1.310000010E-2,-4.189999774E-2
1.055001406E1,3.039999865E-2,6.099999882E-3,-2.229999937E-2
1.057998438E1,2.819999866E-2,-3.229999915E-2,6.999999750E-3
1.060000625E1,-1.099999994E-3,-2.159999870E-2,2.669999935E-2
1.063000938E1,1.840000041E-2,6.639999896E-2,3.649999946E-2
1.066001094E1,-1.989999972E-2,6.019999832E-2,1.630000025E-2
1.069001250E1,-3.720000014E-2,-3.889999911E-2,-4.250000045E-2
1.072001562E1,-6.599999964E-3,-6.430000067E-2,-2.239999920E-2
1.074998594E1,-1.609999873E-2,-3.000000026E-3,-1.239999942E-2
1.077000781E1,-6.899999920E-3,1.669999957E-2,1.689999923E-2
1.080000938E1,2.089999989E-2,5.219999701E-2,1.649999991E-2
1.083001250E1,3.830000013E-2,-7.899999619E-3,6.499999668E-3
1.086001406E1,2.449999936E-2,8.999999613E-3,-7.999999449E-3
1.088998438E1,-1.480000000E-2,8.700000122E-3,2.129999921E-2
1.091000625E1,-4.399999976E-3,-1.899999916E-3,5.069999769E-2
1.094000938E1,-1.269999985E-2,-2.950000018E-2,6.069999933E-2
1.097001094E1,-3.299999982E-3,9.800000116E-3,5.089999735E-2
1.100001250E1,-3.079999983E-2,7.999999449E-3,1.159999985E-2
1.103001562E1,0.000000000E0,1.789999940E-2,-7.899999619E-3
1.105998594E1,-2.850000001E-2,2.579999901E-2,-1.779999956E-2
1.108000781E1,-2.719999850E-2,-3.299999982E-3,-1.779999956E-2
1.111000938E1,-6.899999920E-3,-1.269999985E-2,6.059999764E-2
1.114001250E1,2.029999904E-2,6.300000008E-3,5.069999769E-2
1.117001406E1,3.810000047E-2,5.899999756E-3,3.099999949E-2
1.119998438E1,2.539999969E-2,-2.119999938E-2,2.129999921E-2
1.122000781E1,3.370000049E-2,-1.500000013E-3,1.150000002E-2
1.125000938E1,-6.499999668E-3,-1.099999994E-3,1.699999906E-3
1.128001094E1,2.899999963E-3,-1.699999906E-3,5.059999973E-2
1.131001250E1,-2.489999868E-2,-2.199999988E-3,5.059999973E-2
1.134001563E1,-5.059999973E-2,-2.099999972E-2,2.139999904E-2
1.136998594E1,-1.970000006E-2,-8.999999845E-4,-1.269999985E-2
1.139000781E1,-9.999999747E-5,-2.999999851E-4,6.799999624E-3
1.142000938E1,-9.800000116E-3,-2.799999900E-2,6.999999750E-3
1.145001250E1,-9.099999443E-3,-1.589999907E-2,6.599999964E-2
1.148001406E1,3.879999742E-2,9.579999745E-2,6.549999863E-2
1.150998438E1,8.399999700E-3,2.459999919E-2,1.620000042E-2
1.153000781E1,1.740000024E-2,-4.380000010E-2,6.399999838E-3
1.156000938E1,2.529999986E-2,-6.790000200E-2,6.799999624E-3
1.159001094E1,-6.000000052E-3,-4.659999907E-2,3.629999980E-2
1.162001250E1,-1.449999958E-2,1.999999862E-3,2.649999969E-2
1.165001562E1,-3.269999847E-2,2.989999950E-2,-2.899999963E-3
1.167998594E1,2.459999919E-2,8.999999613E-3,6.599999964E-3
1.170000781E1,2.349999920E-2,-1.950000040E-2,6.699999794E-3
1.173001094E1,2.379999869E-2,-1.860000007E-2,1.659999974E-2
1.176001250E1,-1.409999933E-2,2.840000018E-2,5.570000038E-2
1.179001406E1,-1.439999975E-2,3.639999777E-2,1.630000025E-2
1.181998438E1,5.899999756E-3,-3.070000000E-2,-1.289999951E-2
1.184000781E1,-1.310000010E-2,-2.009999938E-2,2.630000003E-2
1.187000938E1,-2.219999954E-2,9.999999311E-4,-9.699999355E-3
1.190001094E1,-3.009999916E-2,1.399999950E-3,9.999999747E-5
1.193001406E1,-3.940000013E-2,3.070000000E-2,9.899999946E-3
1.196001562E1,-1.809999906E-2,1.950000040E-2,-9.699999355E-3
1.198998594E1,1.109999977E-2,-2.809999883E-2,-1.939999871E-2
1.201000781E1,3.830000013E-2,-3.579999879E-2,1.979999989E-2
1.204001094E1,7.169999927E-2,-1.399999950E-2,-9.499999695E-3
1.207001250E1,5.959999934E-2,-1.379999984E-2,1.999999949E-4
1.210001406E1,1.899999939E-2,-1.279999968E-2,1.989999972E-2
1.212998438E1,-2.909999900E-2,1.529999916E-2,1.999999949E-4
1.215000625E1,-4.609999806E-2,4.279999807E-2,1.970000006E-2
1.218000938E1,-6.049999967E-2,1.150000002E-2,-9.699999355E-3
1.221001094E1,-9.599999525E-3,1.139999926E-2,-1.939999871E-2
1.224001406E1,4.999999655E-4,-7.699999958E-3,-9.599999525E-3
1.227001563E1,1.879999973E-2,-6.539999694E-2,-9.499999695E-3
1.229998594E1,1.789999940E-2,-4.499999806E-3,2.979999967E-2
1.232000781E1,5.460000038E-2,4.239999875E-2,3.929999843E-2
1.235001094E1,-4.199999850E-3,6.169999763E-2,5.099999718E-3
1.238001250E1,1.399999950E-2,1.909999922E-2,-4.409999773E-2
1.241001406E1,-6.499999668E-3,-1.090000011E-2,-5.399999768E-2
1.243998594E1,-5.219999701E-2,-3.720000014E-2,-5.359999835E-2
1.246000781E1,-4.989999905E-2,-2.609999850E-2,-1.420000009E-2
1.249000938E1,-2.859999985E-2,1.359999925E-2,1.519999932E-2
1.252001094E1,1.989999972E-2,1.260000002E-2,-4.360000044E-2
1.255001406E1,1.909999922E-2,1.279999968E-2,-4.369999841E-2
1.258001563E1,2.779999934E-2,-1.640000008E-2,-3.390000015E-2
1.260998750E1,1.719999872E-2,3.099999856E-3,-1.429999992E-2
1.263000938E1,-3.099999856E-3,1.269999985E-2,-4.499999806E-3
1.266001094E1,6.899999920E-3,2.300000051E-3,5.099999718E-3
1.269001250E1,-3.159999847E-2,-7.499999832E-3,-5.359999835E-2
1.272001406E1,-1.079999935E-2,-1.529999916E-2,-6.319999695E-2
1.274998594E1,-1.960000023E-2,-1.519999932E-2,-5.329999700E-2
1.277000781E1,-1.909999922E-2,1.420000009E-2,-3.370000049E-2
1.280000938E1,7.999999798E-4,3.700000001E-3,-4.299999680E-3
1.283001250E1,1.109999977E-2,-6.899999920E-3,5.299999844E-3
1.286001406E1,1.979999989E-2,-6.699999794E-3,7.999999798E-4
1.289001562E1,1.889999956E-2,-5.699999630E-3,-2.850000001E-2
1.291998594E1,1.740000024E-2,-5.399999674E-3,-3.830000013E-2
1.294000938E1,1.669999957E-2,4.299999680E-3,-2.850000001E-2
1.297000938E1,-3.899999894E-3,1.399999950E-2,-3.839999810E-2
1.300001250E1,-1.249999925E-2,1.239999942E-2,-8.999999613E-3
1.303001406E1,-3.969999775E-2,2.219999954E-2,-8.999999613E-3
1.305998594E1,-4.470000044E-2,1.079999935E-2,-4.820000008E-2
1.308000625E1,-5.200000014E-3,1.049999986E-2,-4.820000008E-2
1.311000938E1,2.439999953E-2,-5.619999766E-2,-2.840000018E-2
1.314001250E1,1.379999984E-2,-2.349999920E-2,-8.499999531E-3
1.317001406E1,5.159999803E-2,6.229999661E-2,8.999999845E-4
1.319998438E1,1.979999989E-2,4.719999805E-2,-9.300000034E-3
1.322000625E1,1.899999939E-2,-1.500000013E-3,-3.879999742E-2
1.325000938E1,8.399999700E-3,-6.679999828E-2,-2.869999968E-2
1.328001094E1,-2.879999951E-2,-4.299999774E-2,-1.850000024E-2
1.331001250E1,-1.679999940E-2,-3.999999724E-3,-1.840000041E-2
1.334001563E1,-3.329999745E-2,3.309999779E-2,-3.810000047E-2
1.336998594E1,2.359999903E-2,3.739999980E-2,2.300000004E-2
1.339000781E1,3.189999983E-2,3.529999778E-2,-6.599999964E-3
1.342000938E1,2.999999933E-2,1.469999924E-2,3.000000026E-3
1.345001250E1,2.779999934E-2,2.429999970E-2,3.229999915E-2
1.348001406E1,6.899999920E-3,1.799999969E-3,5.159999803E-2
1.350998438E1,-2.699999837E-3,-9.250000119E-2,3.229999915E-2
1.353000625E1,-3.099999856E-3,-4.059999809E-2,7.180000097E-2
1.356000938E1,1.609999873E-2,9.989999980E-2,3.199999779E-2
1.359001094E1,1.589999907E-2,3.759999946E-2,-1.730000041E-2
1.362001250E1,-2.099999925E-3,-8.469999582E-2,1.260000002E-2
1.365001406E1,7.199999876E-3,-4.399999976E-2,2.899999963E-3
1.367998594E1,-5.779999867E-2,-1.059999987E-1,2.319999970E-2
1.370000781E1,-1.779999956E-2,-1.015999988E-1,4.319999740E-2
1.373000938E1,5.999999866E-2,-3.070000000E-2,4.199999850E-3
1.376001094E1,2.749999985E-2,2.669999935E-2,5.299999937E-2
1.379001406E1,-2.999999933E-2,7.239999622E-2,1.115999967E-1
1.381998438E1,9.499999695E-3,7.419999689E-2,-6.699999794E-3
1.384000625E1,2.789999917E-2,-3.700000001E-3,-5.570000038E-2
1.387000938E1,-5.069999769E-2,-4.140000045E-2,6.570000201E-2
1.390001094E1,-3.769999743E-2,2.529999986E-2,1.048000008E-1
1.393001250E1,-6.699999794E-3,5.799999926E-3,6.799999624E-3
1.396001562E1,7.649999857E-2,-3.179999813E-2,2.639999986E-2
1.398998594E1,6.329999864E-2,6.799999624E-3,9.489999712E-2
1.401000781E1,-2.689999901E-2,5.419999734E-2,9.470000118E-2
1.404000938E1,-5.049999803E-2,5.769999698E-2,3.549999744E-2
1.407001250E1,2.869999968E-2,-8.869999647E-2,-4.279999807E-2
1.410001406E1,-1.079999935E-2,-1.173999980E-1,1.689999923E-2
1.412998438E1,-6.709999591E-2,-6.489999592E-2,8.590000123E-2
1.415000625E1,4.199999850E-3,2.439999953E-2,1.350999922E-1
1.418000938E1,5.909999833E-2,4.889999703E-2,-2.600000007E-3
1.421001094E1,6.549999863E-2,1.789999940E-2,-2.899999963E-3
1.424001250E1,6.870000064E-2,-2.499999944E-3,9.479999542E-2
1.427001563E1,6.560000032E-2,5.519999936E-2,7.499999553E-2
1.429998594E1,3.899999894E-3,4.140000045E-2,9.420000017E-2
1.432000781E1,3.700000001E-3,-1.689999923E-2,6.480000168E-2
1.435001094E1,-2.449999936E-2,-7.239999622E-2,-1.319999993E-2
1.438001250E1,-9.679999948E-2,-3.920000046E-2,7.539999485E-2
1.441001406E1,-4.319999740E-2,-6.679999828E-2,9.539999813E-2
1.443998438E1,1.640999913E-1,3.499999875E-3,4.619999975E-2
1.446000781E1,1.099999994E-1,-8.089999855E-2,-2.499999944E-3
1.449000938E1,-7.429999858E-2,-1.620000005E-1,3.729999810E-2
1.452001094E1,-2.939999849E-2,8.399999700E-3,7.710000128E-2
1.455001406E1,4.629999772E-2,7.349999994E-2,2.759999968E-2
1.458001563E1,6.019999832E-2,7.679999620E-2,3.669999912E-2
1.460998594E1,-2.850000001E-2,7.339999825E-2,1.834999919E-1
1.463000781E1,-3.680000082E-2,6.939999759E-2,6.549999863E-2
1.466001094E1,-4.270000011E-2,3.529999778E-2,-2.300000004E-2
1.469001250E1,-1.166999936E-1,-1.092999950E-1,-2.269999869E-2
1.472001406E1,-9.789999574E-2,-1.180999950E-1,-1.799999969E-3
1.474998594E1,-1.239999942E-2,-4.160000011E-2,7.100000046E-3
1.477000781E1,1.474999934E-1,-1.779999956E-2,1.017999947E-1
1.480000938E1,4.386999905E-1,1.674000025E-1,2.123999894E-1
1.483001094E1,5.351999998E-1,2.671999931E-1,1.384999901E-1
1.486001250E1,3.445000052E-1,9.589999914E-2,4.999999655E-4
1.489001562E1,1.930999905E-1,8.909999579E-2,4.449999705E-2
1.491998594E1,2.502000034E-1,1.519999951E-1,8.460000157E-2
1.494000781E1,2.630999982E-1,1.308999956E-1,8.630000055E-2
1.497001094E1,3.258000016E-1,1.206000000E-1,1.099999994E-1
1.500001250E1,3.132999837E-1,1.852999926E-1,7.999999821E-2
1.503001406E1,3.473999798E-1,2.390999943E-1,6.350000203E-2
1.505998594E1,3.175999820E-1,2.495999932E-1,4.219999909E-2
1.508000781E1,3.403999805E-1,2.305999994E-1,8.169999719E-2
1.511000938E1,3.606999815E-1,1.758999974E-1,9.439999610E-2
1.514001094E1,4.034999907E-1,1.447999924E-1,1.127999946E-1
1.517001406E1,4.483999908E-1,1.576000005E-1,9.559999406E-2
1.520001562E1,3.850999773E-1,1.571999937E-1,6.409999728E-2
1.522998594E1,3.657999933E-1,1.410000026E-1,1.043999940E-1
1.525000938E1,3.759999871E-1,2.276999950E-1,1.238999963E-1
1.528001094E1,3.066000044E-1,3.003000021E-1,9.200000018E-2
1.531001250E1,3.621000051E-1,3.262999952E-1,9.369999915E-2
1.534001563E1,3.956999779E-1,3.509999812E-1,1.106999964E-1
1.536998594E1,3.956999779E-1,2.980999947E-1,1.021999940E-1
1.539000625E1,3.818999827E-1,1.502999961E-1,8.229999989E-2
1.542000938E1,3.930999935E-1,6.390000135E-2,3.059999831E-2
1.545001094E1,4.660999775E-1,2.116999924E-1,-1.630000025E-2
1.548001406E1,3.229999840E-1,2.963999808E-1,-8.999999613E-3
1.551001563E1,2.969999909E-1,1.375000030E-1,9.070000052E-2
1.553998594E1,3.492999971E-1,1.547999978E-1,1.684999913E-1
1.556000938E1,3.137999773E-1,2.603999972E-1,7.039999962E-2
1.559001094E1,2.981999815E-1,2.457999885E-1,-8.500000089E-2
1.562001250E1,3.718999922E-1,1.432999969E-1,-2.749999985E-2
1.565001406E1,3.744999766E-1,1.894999892E-1,3.280000016E-2
1.567998594E1,2.800000012E-1,2.829000056E-1,7.000000030E-2
1.570000781E1,3.422999978E-1,2.603999972E-1,1.090999991E-1
1.573000938E1,3.443999887E-1,2.216999978E-1,3.851999938E-1
1.576001250E1,2.260999978E-1,1.599999964E-1,2.554000020E-1
1.579001250E1,2.289999872E-1,1.453000009E-1,-3.910000026E-1
1.582001563E1,2.656999826E-1,1.916999966E-1,-5.882999897E-1
1.584998594E1,2.584999800E-1,3.147999942E-1,-6.740000099E-2
1.587000938E1,2.377000004E-1,2.536000013E-1,2.753999829E-1
1.590001094E1,4.280000031E-1,2.915999889E-1,3.210999966E-1
1.593001250E1,6.110999584E-1,2.531999946E-1,-2.349999920E-2
1.596001562E1,5.537999868E-1,1.384999901E-1,-1.940999925E-1
1.598998594E1,5.076000094E-1,-7.689999789E-2,6.140000001E-2
1.601000781E1,4.858999848E-1,-7.789999992E-2,2.675999999E-1
1.604000938E1,3.057000041E-1,1.701999903E-1,2.655999959E-1
1.607001094E1,3.114999831E-1,4.052000046E-1,-2.999999851E-4
1.610001406E1,3.055000007E-1,4.091999829E-1,-2.339999937E-2
1.612998438E1,1.876000017E-1,2.755999863E-1,-7.149999589E-2
1.615000625E1,5.590000004E-2,2.210999876E-1,-3.159999847E-2
1.618000938E1,-4.189999774E-2,9.759999812E-2,-7.959999889E-2
1.621001094E1,8.129999787E-2,3.759999946E-2,-1.371999979E-1
1.624001250E1,2.448999882E-1,-7.699999958E-3,5.790000036E-2
1.627001406E1,3.935000002E-1,3.929999843E-2,1.759999990E-1
1.629998594E1,4.849999845E-1,7.429999858E-2,1.255999953E-1
1.632000781E1,5.419999957E-1,1.463999897E-1,8.569999784E-2
1.635003594E1,4.937999845E-1,1.489000022E-1,-1.697999984E-1
1.638001250E1,3.695999980E-1,1.607999951E-1,-1.031999961E-1
1.641001406E1,2.472999990E-1,2.416999936E-1,1.314999908E-1
1.643998438E1,1.331999898E-1,2.492999882E-1,1.686999947E-1
1.646000625E1,9.219999611E-2,2.070999891E-1,1.393000036E-1
1.649000938E1,9.290000051E-2,1.341999918E-1,5.209999904E-2
1.652001094E1,1.105000004E-1,1.182999983E-1,-9.559999406E-2
1.655001250E1,4.140000045E-2,7.939999551E-2,-9.510000050E-2
1.658001562E1,6.830000132E-2,8.779999614E-2,1.279999968E-2
1.660998594E1,1.378999949E-1,1.479000002E-1,3.260000050E-2
1.663000781E1,2.461999953E-1,1.458999962E-1,3.199999779E-2
1.666000938E1,3.003000021E-1,1.107999980E-1,4.989999905E-2
1.669001250E1,3.190000057E-1,1.351999938E-1,6.989999861E-2
1.672001250E1,3.208000064E-1,1.398999989E-1,1.960000023E-2
1.674998438E1,3.069999814E-1,9.719999880E-2,3.029999882E-2
1.677000625E1,2.568999827E-1,1.341999918E-1,7.909999788E-2
1.680000938E1,2.432999909E-1,1.358999908E-1,9.399999864E-3
1.683001094E1,1.757999957E-1,9.239999950E-2,1.049999986E-2
1.686001250E1,6.409999728E-2,9.869999439E-2,-2.879999951E-2
1.689001562E1,2.399999881E-3,6.650000066E-2,-7.779999822E-2
1.691998594E1,-2.279999852E-2,7.249999791E-2,-3.869999945E-2
1.694000781E1,3.500000015E-2,6.300000101E-2,-1.909999922E-2
1.697000938E1,1.013000011E-1,6.449999660E-2,-9.300000034E-3
1.700001250E1,1.889999956E-1,8.999999613E-2,1.919999905E-2
1.703001406E1,2.224999964E-1,1.092999950E-1,4.829999804E-2
1.705998438E1,2.226999998E-1,8.379999548E-2,3.709999844E-2
1.708000781E1,2.237999886E-1,8.999999613E-2,1.679999940E-2
1.711000938E1,2.247999907E-1,5.779999867E-2,3.570000082E-2
1.714001094E1,1.805000007E-1,5.409999937E-2,2.499999851E-2
1.717001406E1,1.352999955E-1,1.092999950E-1,1.459999941E-2
1.720001563E1,2.209999971E-2,1.380999982E-1,-1.599999890E-2
1.722998594E1,-1.679999940E-2,6.579999626E-2,-3.590000048E-2
1.725000781E1,-6.199999712E-3,1.609999873E-2,-7.519999892E-2
1.728000938E1,3.119999915E-2,-1.189999934E-2,-3.590000048E-2
1.731001250E1,7.779999822E-2,3.649999946E-2,-2.620000020E-2
1.734001406E1,1.270000041E-1,9.950000048E-2,1.200000010E-2
1.736998594E1,1.878999919E-1,1.036999971E-1,2.099999972E-2
1.739000781E1,1.037999988E-1,1.180000007E-1,3.989999741E-2
1.742000938E1,6.669999659E-2,6.179999933E-2,2.909999900E-2
1.745001094E1,4.589999840E-2,-1.659999974E-2,-1.979999989E-2
1.748001406E1,6.989999861E-2,-3.439999744E-2,-3.949999809E-2
1.751001562E1,7.620000094E-2,2.249999903E-2,1.289999951E-2
1.753998594E1,3.289999813E-2,3.779999912E-2,5.159999803E-2
1.756000781E1,1.269999985E-2,1.730000041E-2,2.209999971E-2
1.759001094E1,3.299999982E-2,6.469999999E-2,4.160000011E-2
1.762001250E1,5.749999732E-2,1.327999979E-1,-2.809999883E-2
1.765001406E1,3.590000048E-2,2.249999903E-2,-2.840000018E-2
1.767998594E1,2.379999869E-2,-3.439999744E-2,3.039999865E-2
1.770000781E1,6.019999832E-2,-4.250000045E-2,5.009999871E-2
1.773000938E1,5.709999800E-2,-4.169999808E-2,5.009999871E-2
1.776001094E1,4.279999807E-2,-1.999999955E-2,4.030000046E-2
1.779001406E1,3.899999894E-3,2.719999850E-2,1.079999935E-2
1.782001562E1,3.499999875E-3,4.189999774E-2,2.009999938E-2
1.784998594E1,2.290000021E-2,3.959999979E-2,-9.399999864E-3
1.787000781E1,5.049999803E-2,2.850000001E-2,-3.900000080E-2
1.790001094E1,3.639999777E-2,5.350000039E-2,-2.999999851E-4
1.793001250E1,2.539999969E-2,2.209999971E-2,5.819999799E-2
1.796001406E1,-3.799999831E-3,-7.899999619E-3,4.829999804E-2
1.798998438E1,2.400000021E-2,-3.570000082E-2,-4.999999655E-4
1.801000781E1,3.179999813E-2,-1.709999889E-2,-2.029999904E-2
1.804000938E1,4.999999655E-4,2.499999944E-3,1.879999973E-2
1.807001094E1,-9.300000034E-3,2.190000005E-2,6.780000031E-2
1.810001406E1,-7.799999788E-3,3.759999946E-2,4.789999872E-2
1.813001563E1,2.139999904E-2,1.620000042E-2,1.829999872E-2
1.815998594E1,2.889999934E-2,-3.170000017E-2,2.809999883E-2
1.818000781E1,3.689999878E-2,-2.119999938E-2,6.740000099E-2
1.821001094E1,2.589999884E-2,3.529999778E-2,4.749999940E-2
1.824001250E1,2.269999869E-2,5.029999837E-2,3.720000014E-2
1.827001406E1,4.129999876E-2,-9.399999864E-3,7.699999958E-3
1.829998594E1,1.009999961E-2,-3.639999777E-2,7.799999788E-3
1.832000781E1,1.999999949E-4,-3.500000015E-2,4.719999805E-2
1.835001094E1,-3.720000014E-2,3.899999894E-3,2.759999968E-2
1.838001250E1,1.189999934E-2,2.199999988E-2,4.710000008E-2
1.841001406E1,3.049999848E-2,4.050000012E-2,2.730000019E-2
1.844001562E1,2.779999934E-2,3.759999946E-2,2.699999884E-2
1.846998594E1,1.799999923E-2,1.620000042E-2,7.199999876E-3
1.849000938E1,3.720000014E-2,-1.339999959E-2,2.679999918E-2
1.852001094E1,2.679999918E-2,-2.999999851E-4,9.999999747E-5
1.855001250E1,3.579999879E-2,-1.909999922E-2,9.999999776E-3
1.858001406E1,-3.899999894E-3,1.079999935E-2,2.960000001E-2
1.860998594E1,-1.349999942E-2,-8.299999870E-3,-1.929999888E-2
1.863000781E1,-3.199999779E-2,1.500000013E-3,-3.879999742E-2
1.866000938E1,-1.989999972E-2,1.079999935E-2,-1.919999905E-2
1.869001094E1,9.999999747E-5,1.919999905E-2,9.999999776E-3
1.872001406E1,9.399999864E-3,-1.699999906E-3,1.970000006E-2
1.875001562E1,8.899999782E-3,-1.599999960E-3,-9.699999355E-3
1.877998594E1,7.299999706E-3,-1.049999986E-2,9.999999747E-5
1.880000781E1,1.630000025E-2,-1.950000040E-2,1.970000006E-2
1.883001094E1,1.609999873E-2,-9.699999355E-3,1.970000006E-2
1.886001250E1,-2.239999920E-2,9.599999525E-3,2.960000001E-2
1.889001406E1,-2.139999904E-2,1.989999972E-2,-1.929999888E-2
1.891998594E1,-2.889999934E-2,9.599999525E-3,-9.499999695E-3
1.894000781E1,-2.759999968E-2,9.200000204E-3,-1.929999888E-2
1.897000938E1,1.189999934E-2,8.899999782E-3,1.999999949E-4
1.900001250E1,1.899999916E-3,-2.999999851E-4,0.000000000E0
1.903001250E1,2.009999938E-2,9.399999864E-3,0.000000000E0
1.905998438E1,8.999999613E-3,-1.999999949E-4,-9.800000116E-3
1.908000625E1,8.599999361E-3,9.099999443E-3,9.699999355E-3
1.911000938E1,-1.500000013E-3,1.840000041E-2,9.599999525E-3
1.914001094E1,8.799999952E-3,-7.999999798E-4,-1.970000006E-2
1.917001250E1,9.699999355E-3,7.699999958E-3,-9.899999946E-3
1.920001406E1,-1.750000007E-2,7.100000046E-3,-9.999999747E-5
1.922998594E1,1.899999916E-3,-3.899999894E-3,-1.009999961E-2
1.925000781E1,1.799999969E-3,-4.499999806E-3,-3.949999809E-2
1.928000938E1,2.039999887E-2,-3.170000017E-2,-9.899999946E-3
1.931001250E1,-9.800000116E-3,-1.300000004E-3,9.599999525E-3
1.934001406E1,2.759999968E-2,6.329999864E-2,2.879999951E-2
1.936998438E1,1.609999873E-2,3.049999848E-2,8.899999782E-3
1.939000781E1,-3.700000001E-3,6.999999750E-4,-4.010000080E-2
1.942000938E1,1.480000000E-2,-5.419999734E-2,9.200000204E-3
1.945001094E1,4.799999762E-3,-3.379999846E-2,-2.009999938E-2
1.948001250E1,-2.190000005E-2,-7.660000026E-2,-1.950000040E-2
1.951001406E1,4.539999738E-2,-9.300000034E-3,-3.999999899E-4
1.953998594E1,-3.379999846E-2,-2.829999849E-2,-2.979999967E-2
1.956000781E1,-7.909999788E-2,-2.709999867E-2,9.599999525E-3
1.959000938E1,1.159999985E-2,2.159999870E-2,3.909999877E-2
1.962001250E1,5.700000003E-2,5.659999698E-2,-3.979999945E-2
1.965001406E1,-4.199999850E-3,6.599999964E-3,-2.029999904E-2
1.967998438E1,-3.929999843E-2,-2.190000005E-2,4.839999974E-2
1.970000625E1,-1.999999949E-4,4.429999739E-2,6.780000031E-2
1.973000938E1,2.829999849E-2,-2.569999918E-2,-8.999999845E-4
1.976001094E1,2.589999884E-2,-6.030000001E-2,-4.959999770E-2
1.979001250E1,4.349999875E-2,-2.939999849E-2,-2.009999938E-2
1.982001406E1,1.339999959E-2,1.879999973E-2,-5.999999703E-4
1.984998594E1,-6.430000067E-2,-1.090000011E-2,-1.040000003E-2
1.987000781E1,-5.209999904E-2,-9.899999946E-3,9.300000034E-3
1.990001094E1,2.719999850E-2,-9.399999864E-3,3.879999742E-2
1.993001250E1,4.389999807E-2,-9.800000116E-3,1.909999922E-2
1.996001406E1,-7.799999788E-3,-2.749999985E-2,-3.959999979E-2
1.998998438E1,-1.679999940E-2,-7.499999832E-3,-1.989999972E-2
2.001000781E1,-2.549999952E-2,3.109999932E-2,-1.009999961E-2
2.004000938E1,3.899999894E-3,-7.400000002E-3,1.929999888E-2
2.007001094E1,-6.000000052E-3,3.099999856E-3,-1.999999949E-4
2.010001250E1,4.199999850E-3,2.699999837E-3,9.499999695E-3
2.013001563E1,3.429999948E-2,2.180000022E-2,-9.999999776E-3
2.015998594E1,4.100000020E-3,2.099999925E-3,-2.999999851E-4
2.018000781E1,1.329999976E-2,-1.649999991E-2,-2.960000001E-2
2.021001094E1,-2.659999952E-2,-8.700000122E-3,9.899999946E-3
2.024001250E1,1.139999926E-2,1.199999941E-3,3.929999843E-2
2.027001406E1,1.129999943E-2,9.999999776E-3,2.939999849E-2
2.029998438E1,-3.689999878E-2,0.000000000E0,2.939999849E-2
2.032000625E1,-1.649999991E-2,-9.399999864E-3,1.970000006E-2
2.035002969E1,-6.399999838E-3,-8.899999782E-3,-9.599999525E-3
2.038001094E1,-2.549999952E-2,-3.629999980E-2,2.969999984E-2
2.041001250E1,1.299999934E-2,1.319999993E-2,3.959999979E-2
2.044001562E1,1.049999986E-2,6.709999591E-2,4.889999703E-2
2.046998594E1,-9.499999695E-3,6.899999920E-3,-9.999999776E-3
2.049000781E1,-9.599999525E-3,-3.079999983E-2,1.939999871E-2
2.052001094E1,8.999999613E-3,-1.819999889E-2,9.899999946E-3
2.055001250E1,9.999999747E-5,1.189999934E-2,-9.599999525E-3
2.058001406E1,9.999999747E-5,2.999999933E-2,9.800000116E-3
2.060998438E1,1.919999905E-2,2.819999866E-2,2.929999866E-2
2.063000781E1,1.829999872E-2,-2.099999925E-3,1.929999888E-2
2.066000938E1,-1.899999916E-3,1.509999949E-2,-1.019999944E-2
2.069001094E1,-1.179999951E-2,-4.699999932E-3,-6.999999750E-4
2.072001250E1,-1.899999916E-3,1.339999959E-2,3.830000013E-2
2.075001562E1,-1.799999969E-3,-1.519999932E-2,1.869999990E-2
2.077998594E1,-7.999999798E-4,-1.399999950E-2,-1.040000003E-2
2.080000781E1,8.499999531E-3,-3.219999745E-2,9.200000204E-3
2.083001094E1,-1.199999941E-3,-3.000000026E-3,-1.030000020E-2
2.086001250E1,-1.090000011E-2,6.599999964E-3,-1.030000020E-2
2.089001406E1,1.889999956E-2,2.669999935E-2,9.200000204E-3
2.091998438E1,-5.999999703E-4,6.799999624E-3,9.200000204E-3
2.094000781E1,-4.999999655E-4,1.589999907E-2,-1.040000003E-2
2.097000938E1,-9.999999747E-5,-3.499999875E-3,1.899999939E-2
2.100001094E1,9.200000204E-3,-2.899999963E-3,3.859999776E-2
2.103001406E1,2.789999917E-2,-2.300000051E-3,9.200000204E-3
2.106001563E1,-1.300000004E-3,-1.799999969E-3,2.889999934E-2
2.108998594E1,-2.089999989E-2,6.699999794E-3,9.200000204E-3
2.111000781E1,-2.080000006E-2,-2.259999886E-2,9.200000204E-3
2.114001094E1,-1.950000040E-2,-1.059999969E-2,9.399999864E-3
2.117001250E1,1.019999944E-2,8.499999531E-3,-2.999999851E-4
2.120001406E1,1.099999994E-3,8.200000040E-3,-2.999999851E-4
2.122998594E1,1.079999935E-2,-1.500000013E-3,-1.009999961E-2
2.125000625E1,9.999999311E-4,-2.699999837E-3,-1.019999944E-2
2.128000938E1,1.069999952E-2,1.620000042E-2,9.200000204E-3
2.131001094E1,9.800000116E-3,-2.799999900E-3,1.899999939E-2
2.134001406E1,0.000000000E0,6.300000008E-3,9.200000204E-3
2.137001562E1,3.999999899E-4,1.579999924E-2,-1.040000003E-2
2.139998594E1,-9.300000034E-3,1.449999958E-2,-2.029999904E-2
2.142000781E1,-8.899999782E-3,-3.299999982E-2,9.200000204E-3
2.145001094E1,-8.599999361E-3,-3.109999932E-2,3.879999742E-2
2.148001250E1,1.040000003E-2,2.639999986E-2,1.899999939E-2
2.151001406E1,1.079999935E-2,2.389999852E-2,2.859999985E-2
2.153998594E1,2.899999917E-2,-1.599999890E-2,-1.059999969E-2
2.156000781E1,1.840000041E-2,-4.339999706E-2,-1.040000003E-2
2.159000938E1,-2.070000023E-2,-4.149999842E-2,-2.009999938E-2
2.162001094E1,-9.999999776E-3,-1.989999972E-2,-2.999999851E-4
2.165001406E1,-8.200000040E-3,-1.999999862E-3,3.879999742E-2
2.168001563E1,1.970000006E-2,2.449999936E-2,-1.049999986E-2
2.170998594E1,-6.999999750E-4,1.439999975E-2,-1.779999956E-2
2.173000938E1,-1.049999986E-2,-5.200000014E-3,1.150000002E-2
2.176001094E1,-1.850000024E-2,-2.389999852E-2,1.169999968E-2
2.179001250E1,-1.899999939E-2,5.200000014E-3,1.799999969E-3
2.182001406E1,1.950000040E-2,-1.379999984E-2,5.089999735E-2
2.184998594E1,9.699999355E-3,-1.319999993E-2,1.169999968E-2
2.187000781E1,-9.800000116E-3,-3.700000001E-3,2.149999887E-2
2.190000938E1,-8.499999531E-3,2.479999885E-2,-7.899999619E-3
2.193001250E1,2.199999988E-2,5.799999926E-3,1.169999968E-2
2.196001406E1,2.600000007E-3,4.699999932E-3,2.139999904E-2
2.198998438E1,-2.649999969E-2,-1.589999907E-2,3.119999915E-2
2.201000625E1,2.300000051E-3,-1.709999889E-2,2.119999938E-2
2.204000938E1,1.189999934E-2,-2.579999901E-2,1.699999906E-3
2.207001094E1,1.129999943E-2,-1.609999873E-2,1.150000002E-2
2.210001250E1,-2.699999884E-2,-1.509999949E-2,-7.899999619E-3
2.213001406E1,-7.999999449E-3,-5.200000014E-3,-7.899999619E-3
2.215998594E1,-7.299999706E-3,3.700000001E-3,1.699999906E-3
2.218000781E1,-3.509999812E-2,-5.699999630E-3,1.799999969E-3
2.221000938E1,-5.799999926E-3,-1.499999966E-2,7.999999449E-3
2.224001250E1,3.199999919E-3,4.499999806E-3,-1.799999969E-3
2.227001406E1,-7.599999662E-3,-4.499999806E-3,1.779999956E-2
2.229998438E1,1.129999943E-2,5.099999718E-3,1.769999973E-2
2.232000781E1,1.079999935E-2,1.420000009E-2,1.769999973E-2
2.235000781E1,9.999999747E-5,-4.699999932E-3,1.769999973E-2
2.238001094E1,-8.899999782E-3,5.200000014E-3,2.749999985E-2
2.241001406E1,2.080000006E-2,-1.420000009E-2,2.759999968E-2
2.244001562E1,-8.599999361E-3,-4.399999976E-3,7.899999619E-3
2.246998594E1,-1.799999923E-2,1.349999942E-2,7.799999788E-3
2.249000781E1,-1.679999940E-2,4.399999976E-3,1.769999973E-2
2.252001094E1,2.119999938E-2,2.359999903E-2,-2.149999887E-2
2.255001250E1,-8.200000040E-3,-3.519999981E-2,-1.899999916E-3
2.258001406E1,-7.899999619E-3,-1.349999942E-2,2.759999968E-2
2.260998438E1,1.300000004E-3,2.529999986E-2,1.779999956E-2
2.263000625E1,3.019999899E-2,4.289999977E-2,1.759999990E-2
2.266000938E1,1.779999956E-2,2.099999925E-3,7.599999662E-3
2.269000938E1,-2.699999837E-3,-4.639999941E-2,-4.299999680E-3
2.272001250E1,-3.099999949E-2,-4.369999841E-2,5.699999630E-3
2.275001563E1,-1.090000011E-2,1.449999958E-2,1.539999992E-2
2.277998594E1,-6.999999750E-4,3.130000085E-2,3.480000049E-2
2.280000781E1,2.740000002E-2,3.929999843E-2,5.200000014E-3
2.283000938E1,6.999999750E-3,1.879999973E-2,5.099999718E-3
2.286001250E1,-2.499999944E-3,8.100000210E-3,1.480000000E-2
2.289001406E1,-1.269999985E-2,-1.139999926E-2,4.999999888E-3
2.291998438E1,6.599999964E-3,1.699999906E-2,2.449999936E-2
2.294000625E1,6.300000008E-3,6.899999920E-3,-4.799999762E-3
2.297000938E1,-2.279999852E-2,-3.119999915E-2,2.459999919E-2
2.300001094E1,5.899999756E-3,-2.049999870E-2,5.099999718E-3
2.303001406E1,-4.369999841E-2,-7.999999798E-4,4.999999888E-3
2.306001563E1,-1.310000010E-2,-9.699999355E-3,5.200000014E-3
2.308998594E1,1.669999957E-2,5.999999703E-4,1.499999966E-2
2.311000781E1,6.599999964E-3,4.999999655E-4,1.499999966E-2
2.314000938E1,6.399999838E-3,1.040000003E-2,3.460000083E-2
2.317001250E1,-4.100000020E-3,-8.799999952E-3,5.200000014E-3
2.320001406E1,1.519999932E-2,-2.459999919E-2,-1.989999972E-2
2.322998438E1,-3.700000001E-3,5.899999756E-3,-9.899999946E-3
2.325000625E1,-1.420000009E-2,5.799999926E-3,-9.999999776E-3
2.328000938E1,-2.269999869E-2,4.999999888E-3,-1.979999989E-2
2.331001094E1,6.799999624E-3,-1.509999949E-2,-2.969999984E-2
2.334001406E1,-1.799999969E-3,3.899999894E-3,-2.969999984E-2
2.337001562E1,-1.150000002E-2,1.269999985E-2,-1.019999944E-2
2.339998594E1,2.569999918E-2,-1.509999949E-2,-1.009999961E-2
2.342000938E1,-1.279999968E-2,-4.999999888E-3,-1.979999989E-2
2.345001094E1,6.799999624E-3,-5.499999970E-3,-1.989999972E-2
2.348001250E1,-1.229999959E-2,-4.900000058E-3,-3.940000013E-2
2.351001406E1,-1.139999926E-2,4.699999932E-3,-1.979999989E-2
2.353998594E1,-2.019999921E-2,4.299999680E-3,-9.999999776E-3
2.356000625E1,-4.999999655E-4,3.229999915E-2,-2.999999851E-4
2.359000938E1,9.699999355E-3,1.260000002E-2,-1.989999972E-2
2.362001094E1,2.999999851E-4,-6.699999794E-3,1.919999905E-2
2.365001406E1,8.799999952E-3,2.119999938E-2,-2.009999938E-2
2.368001563E1,-1.009999961E-2,-3.559999913E-2,-5.909999833E-2
2.370998594E1,-3.999999899E-4,-1.620000042E-2,2.789999917E-2
2.373000781E1,1.829999872E-2,3.289999813E-2,1.809999906E-2
2.376001094E1,2.479999885E-2,3.819999844E-2,1.759999990E-2
2.379001250E1,1.559999958E-2,-2.939999849E-2,-1.799999969E-3
2.382001406E1,1.509999949E-2,-2.649999969E-2,-1.599999960E-3
2.384998594E1,-3.799999831E-3,-1.509999949E-2,-1.119999960E-2
2.387000781E1,-2.279999852E-2,3.339999914E-2,2.789999917E-2
2.390000938E1,6.399999838E-3,2.060000040E-2,1.779999956E-2
2.393001094E1,1.549999975E-2,2.029999904E-2,-1.799999969E-3
2.396001250E1,-3.999999724E-3,2.769999951E-2,-3.139999881E-2
2.399001562E1,-3.399999812E-3,-1.139999926E-2,-1.999999862E-3
2.401998594E1,-2.300000051E-3,1.679999940E-2,7.699999958E-3
2.404000781E1,1.640000008E-2,6.599999964E-3,2.719999850E-2
2.407001094E1,3.700000048E-2,-1.150000002E-2,-1.899999916E-3
2.410001250E1,1.589999907E-2,-1.909999922E-2,7.899999619E-3
2.413001406E1,-3.099999856E-3,-8.599999361E-3,-2.129999921E-2
2.415998438E1,-1.129999943E-2,1.500000013E-3,-1.139999926E-2
2.418000625E1,-1.079999935E-2,1.090000011E-2,-2.129999921E-2
2.421000938E1,8.299999870E-3,1.019999944E-2,9.200000204E-3
2.424001094E1,7.899999619E-3,9.300000034E-3,9.099999443E-3
2.427001406E1,1.740000024E-2,-1.109999977E-2,-1.049999986E-2
2.430001562E1,-3.199999919E-3,-2.939999849E-2,9.099999443E-3
2.432998594E1,-3.899999894E-3,-1.869999990E-2,9.200000204E-3
2.435000781E1,-4.199999850E-3,-1.829999872E-2,-4.999999655E-4
2.438001094E1,-1.319999993E-2,9.999999776E-3,-5.999999703E-4
2.441001250E1,-2.279999852E-2,9.999999776E-3,3.859999776E-2
2.444001406E1,-1.310000010E-2,1.500000013E-3,-1.030000020E-2
2.446998594E1,-1.299999934E-2,1.300000004E-3,-4.999999655E-4
2.449000781E1,2.669999935E-2,-7.999999449E-3,-3.999999899E-4
2.452000938E1,2.599999867E-2,-7.499999832E-3,1.909999922E-2
2.455001094E1,6.099999882E-3,-8.499999531E-3,1.899999939E-2
2.458001406E1,1.409999933E-2,-8.599999361E-3,-4.999999655E-4
2.461001563E1,1.429999992E-2,-7.799999788E-3,9.200000204E-3
2.463998594E1,-5.099999718E-3,2.199999988E-3,9.300000034E-3
2.466000938E1,4.399999976E-3,1.150000002E-2,-4.999999655E-4
2.469001094E1,-2.459999919E-2,-6.300000008E-3,-1.199999941E-3
2.472001250E1,-2.329999954E-2,2.239999920E-2,-4.050000012E-2
2.475001563E1,-1.319999993E-2,-7.199999876E-3,-2.089999989E-2
2.477998594E1,-1.169999968E-2,-2.410000004E-2,8.700000122E-3
2.480000781E1,2.620000020E-2,2.369999886E-2,8.599999361E-3
2.483000938E1,5.899999756E-3,6.069999933E-2,-3.070000000E-2
2.486001250E1,-3.899999894E-3,-9.099999443E-3,-1.119999960E-2
2.489001406E1,1.539999992E-2,-1.799999923E-2,-1.119999960E-2
2.491998438E1,-4.499999806E-3,-2.489999868E-2,-3.049999848E-2
2.494000625E1,-4.179999977E-2,-4.999999888E-3,-2.060000040E-2
2.497000938E1,-2.080000006E-2,4.499999806E-3,-9.999999311E-4
2.500001094E1,1.759999990E-2,4.050000012E-2,-3.070000000E-2
2.503001250E1,2.620000020E-2,-9.800000116E-3,-3.089999966E-2
2.506001563E1,1.539999992E-2,-1.899999939E-2,-1.399999950E-3
2.508998594E1,-3.000000026E-3,4.999999655E-4,8.299999870E-3
2.511000781E1,-2.209999971E-2,1.030000020E-2,-1.119999960E-2
2.514000938E1,1.689999923E-2,-8.599999361E-3,-3.079999983E-2
2.517001250E1,1.620000042E-2,-1.750000007E-2,-5.029999837E-2
2.520001406E1,-1.260000002E-2,-2.630000003E-2,-3.070000000E-2
2.522998438E1,7.499999832E-3,3.399999812E-3,8.499999531E-3
2.525000625E1,-1.059999969E-2,1.389999967E-2,-3.049999848E-2
2.528000938E1,-3.689999878E-2,3.089999966E-2,-4.050000012E-2
2.531001094E1,2.099999925E-3,2.019999921E-2,-1.399999950E-3
2.534001406E1,2.300000051E-3,-8.299999870E-3,-3.070000000E-2
2.537001562E1,2.139999904E-2,-2.649999969E-2,-1.199999941E-3
2.539998594E1,-7.999999449E-3,-5.899999756E-3,-1.099999994E-3
2.542000781E1,-7.699999958E-3,1.299999934E-2,8.599999361E-3
2.545000938E1,1.179999951E-2,-7.100000046E-3,-4.039999843E-2
2.548001250E1,3.039999865E-2,-1.519999932E-2,-3.049999848E-2
2.551001406E1,2.999999933E-2,-5.399999674E-3,-1.090000011E-2
2.553998438E1,-1.860000007E-2,3.399999812E-3,-1.099999994E-3
2.556000625E1,-8.399999700E-3,3.299999982E-3,-1.099999994E-3
2.559000938E1,-2.719999850E-2,2.699999837E-3,-1.099999994E-2
2.562001094E1,-1.499999966E-2,1.200000010E-2,-4.039999843E-2
2.565001250E1,-2.499999851E-2,2.300000051E-3,-4.039999843E-2
2.568001406E1,1.370000001E-2,-6.399999838E-3,-3.049999848E-2
2.570998594E1,1.339999959E-2,1.150000002E-2,1.950000040E-2
2.573000781E1,-7.100000046E-3,-8.100000210E-3,9.699999355E-3
2.576000938E1,1.129999943E-2,2.199999988E-3,2.929999866E-2
2.579001250E1,9.899999946E-3,2.029999904E-2,1.939999871E-2
2.582001406E1,8.200000040E-3,1.979999989E-2,-9.999999776E-3
2.584998438E1,-1.079999935E-2,-2.869999968E-2,-1.979999989E-2
2.587000781E1,1.899999939E-2,-2.740000002E-2,-9.999999747E-5
2.590000938E1,8.399999700E-3,-6.399999838E-3,1.960000023E-2
2.593001094E1,-2.989999950E-2,-6.300000008E-3,5.879999697E-2
2.596001250E1,-2.899999917E-2,4.939999804E-2,9.499999695E-3
2.599001562E1,-2.769999951E-2,5.669999868E-2,-1.999999955E-2
2.601998594E1,1.079999935E-2,-2.219999954E-2,-1.019999944E-2
2.604000781E1,9.999999311E-4,-3.999999911E-2,-1.009999961E-2
2.607001094E1,1.960000023E-2,-3.869999945E-2,-9.999999776E-3
2.610001250E1,-9.699999355E-3,-1.789999940E-2,9.599999525E-3
2.613001406E1,1.909999922E-2,1.159999985E-2,2.929999866E-2
2.615998438E1,1.750000007E-2,1.069999952E-2,-9.999999776E-3
2.618000781E1,1.669999957E-2,-1.769999973E-2,-9.899999946E-3
2.621000938E1,2.529999986E-2,-6.899999920E-3,3.900000080E-2
2.624001094E1,-3.260000050E-2,1.179999951E-2,2.909999900E-2
2.627001406E1,-4.149999842E-2,1.119999960E-2,9.499999695E-3
2.630001562E1,-2.899999917E-2,-8.499999531E-3,-1.999999949E-4
2.632998594E1,1.599999960E-3,-2.779999934E-2,-9.999999747E-5
2.635000781E1,1.500000013E-3,-1.509999949E-2,9.800000116E-3
2.638001094E1,2.009999938E-2,-4.109999910E-2,-9.399999864E-3
2.641001250E1,-6.999999750E-4,7.799999788E-3,1.989999972E-2
2.644001406E1,-1.099999994E-2,2.479999885E-2,9.800000116E-3
2.646998594E1,-1.500000013E-3,-4.199999850E-3,-1.950000040E-2
2.649000781E1,5.559999868E-2,-3.299999982E-2,-1.950000040E-2
2.652000938E1,6.019999832E-2,-3.059999831E-2,2.950000018E-2
2.655001094E1,3.869999945E-2,-9.399999864E-3,4.930000007E-2
2.658001406E1,-1.879999973E-2,-3.999999899E-4,2.960000001E-2
2.661001563E1,-8.100000210E-3,-9.699999355E-3,1.989999972E-2
2.663998594E1,-3.549999744E-2,-8.299999870E-3,-2.889999934E-2
2.666000781E1,-5.799999926E-3,-7.899999619E-3,-1.899999939E-2
2.669001094E1,4.399999976E-3,2.600000007E-3,2.999999851E-4
2.672001250E1,2.359999903E-2,1.169999968E-2,1.999999949E-4
2.675001406E1,3.189999983E-2,1.300000004E-3,-9.599999525E-3
2.677998594E1,1.090000011E-2,-1.659999974E-2,1.999999949E-4
2.680000781E1,2.909999900E-2,1.209999993E-2,1.999999949E-4
2.683000938E1,-1.399999950E-3,3.039999865E-2,0.000000000E0
2.686001094E1,-1.099999994E-2,4.669999704E-2,-1.979999989E-2
2.689001406E1,-3.949999809E-2,-3.000000026E-3,9.499999695E-3
2.692001562E1,-7.319999486E-2,6.599999964E-3,9.599999525E-3
2.694998594E1,-1.083999947E-1,-1.300000004E-3,-2.919999883E-2
2.697000938E1,-9.380000085E-2,2.730000019E-2,-4.879999906E-2
2.700000938E1,-6.740000099E-2,-5.869999900E-2,-1.899999939E-2
2.703001250E1,2.300000051E-3,-4.559999704E-2,4.989999905E-2
2.706001406E1,6.599999964E-2,6.030000001E-2,2.019999921E-2
2.708998594E1,1.197999939E-1,3.799999878E-2,3.940000013E-2
2.711000781E1,1.033999994E-1,-3.059999831E-2,9.800000116E-3
2.714000938E1,6.650000066E-2,-4.669999704E-2,-9.599999525E-3
2.717001250E1,-1.219999976E-2,-6.599999964E-3,-5.859999731E-2
2.720001406E1,-4.820000008E-2,3.399999812E-3,8.999999845E-4
2.723001562E1,-1.750000007E-2,-1.640000008E-2,8.999999845E-4
2.725998594E1,2.199999988E-3,1.260000002E-2,-8.799999952E-3
2.728000781E1,-3.519999981E-2,2.699999837E-3,-1.860000007E-2
2.731001094E1,-5.069999769E-2,3.170000017E-2,-3.810000047E-2
2.734001250E1,-2.669999935E-2,9.899999946E-3,-5.779999867E-2
2.737001406E1,3.189999983E-2,1.950000040E-2,-1.860000007E-2
2.739998594E1,3.979999945E-2,3.999999899E-4,8.999999845E-4
2.742000625E1,4.739999771E-2,-2.789999917E-2,4.999999702E-2
2.745000938E1,6.099999882E-3,1.199999941E-3,-8.899999782E-3
2.748001250E1,-1.339999959E-2,1.049999986E-2,-7.759999484E-2
2.751001406E1,-6.989999861E-2,1.049999986E-2,-1.869999990E-2
2.754001563E1,-8.269999921E-2,-1.779999956E-2,1.099999994E-3
2.756998594E1,-7.909999788E-2,1.189999934E-2,-2.799999900E-2
2.759000938E1,-4.710000008E-2,4.979999736E-2,-8.499999531E-3
2.762001094E1,3.969999775E-2,2.630000003E-2,-3.830000013E-2
2.765001250E1,1.521999985E-1,-6.109999865E-2,7.999999798E-4
2.768001406E1,1.565999985E-1,-8.399999887E-2,8.919999748E-2
2.770998594E1,8.540000021E-2,-3.509999812E-2,-3.419999778E-2
2.773000781E1,-4.299999680E-3,3.350000083E-2,-9.299999475E-2
2.776001094E1,-5.979999900E-2,7.649999857E-2,-1.424999982E-1
2.779001250E1,-8.549999446E-2,2.469999902E-2,-1.328999996E-1
2.782001406E1,-1.059999987E-1,-1.219999976E-2,-5.399999768E-2
2.784998438E1,-1.212999970E-1,5.579999834E-2,-5.389999971E-2
2.787000625E1,-1.074000001E-1,5.370000005E-2,-1.030000001E-1
2.790000938E1,2.300000051E-3,-2.319999970E-2,-1.224999949E-1
2.793001094E1,9.690000117E-2,-3.959999979E-2,-1.123999953E-1
2.796001250E1,1.163999960E-1,1.929999888E-2,-5.389999971E-2
2.799001562E1,6.489999592E-2,4.669999704E-2,-3.449999914E-2
2.801998594E1,-4.799999762E-3,4.499999806E-3,-9.359999746E-2
2.804000625E1,-6.079999730E-2,-3.269999847E-2,-9.339999408E-2
2.807001094E1,-3.929999843E-2,-1.599999960E-3,-5.399999768E-2
2.810001094E1,-3.610000014E-2,1.181999967E-1,-5.460000038E-2
2.813001406E1,-7.189999521E-2,3.549999744E-2,-1.332999915E-1
2.815998438E1,-1.929999888E-2,-8.540000021E-2,-1.228000000E-1
2.818000625E1,9.599999525E-3,-2.499999851E-2,-9.329999983E-2
2.821000938E1,1.869999990E-2,5.169999972E-2,-8.359999955E-2
2.824001094E1,9.139999747E-2,-1.719999872E-2,-8.379999548E-2
2.827001250E1,1.828999966E-1,-6.399999559E-2,-3.480000049E-2
2.830001406E1,8.339999616E-2,5.699999630E-3,-2.180000022E-2
2.832998594E1,-5.299999937E-2,6.149999797E-2,-7.109999657E-2
2.835000781E1,-1.169999987E-1,6.909999996E-2,-1.397999972E-1
2.838000938E1,-8.789999783E-2,4.519999772E-2,-1.105000004E-1
2.841001250E1,-1.114999950E-1,5.200000014E-3,-9.079999477E-2
2.844001406E1,-1.026000008E-1,-3.170000017E-2,-9.039999545E-2
2.846998438E1,7.199999876E-3,-4.910000041E-2,-7.050000131E-2
2.849000781E1,7.379999757E-2,-3.700000048E-2,-3.109999932E-2
2.852000938E1,9.359999746E-2,-2.339999937E-2,-2.129999921E-2
2.855001094E1,5.079999939E-2,6.350000203E-2,-8.029999584E-2
2.858001250E1,5.469999835E-2,3.009999916E-2,-5.139999837E-2
2.861001563E1,2.379999869E-2,-2.730000019E-2,-2.190000005E-2
2.863998594E1,-1.509999949E-2,2.190000005E-2,-8.069999516E-2
2.866000625E1,-7.989999652E-2,3.070000000E-2,-1.100999936E-1
2.869001094E1,-8.689999580E-2,1.989999972E-2,-6.109999865E-2
2.872001250E1,-5.189999938E-2,-1.779999956E-2,-9.019999951E-2
2.875001406E1,-3.029999882E-2,-2.579999901E-2,-1.391000003E-1
2.877998438E1,-1.919999905E-2,-1.709999889E-2,-2.099999925E-3
2.880000781E1,1.899999939E-2,2.199999988E-3,1.740000024E-2
2.883000781E1,3.599999845E-2,5.029999837E-2,-2.300000051E-3
2.886001094E1,6.069999933E-2,9.200000204E-3,-5.159999803E-2
2.889001406E1,5.900000036E-2,-3.909999877E-2,-3.199999779E-2
2.892001562E1,5.399999768E-2,-8.599999361E-3,-2.219999954E-2
2.894998594E1,-5.799999926E-3,3.859999776E-2,-3.219999745E-2
2.897000781E1,-3.399999812E-2,4.600000009E-2,-4.219999909E-2
2.900001094E1,-5.869999900E-2,1.509999949E-2,-5.199999735E-2
2.903001250E1,-7.609999925E-2,-7.099999487E-2,-3.219999745E-2
2.906001406E1,-5.859999731E-2,-4.649999738E-2,-1.189999934E-2
2.908998438E1,-1.719999872E-2,8.889999986E-2,-3.159999847E-2
2.911000781E1,1.249999925E-2,9.459999949E-2,-5.159999803E-2
2.914000938E1,9.420000017E-2,-6.099999882E-3,-2.259999886E-2
2.917001094E1,1.279999912E-1,-8.209999651E-2,-2.249999903E-2
2.920001406E1,6.979999691E-2,-9.999999747E-5,1.669999957E-2
2.923001406E1,-3.709999844E-2,6.729999930E-2,-3.229999915E-2
2.925998594E1,-7.000000030E-2,4.329999909E-2,-7.180000097E-2
2.928000781E1,-4.969999939E-2,-1.099999994E-3,-1.500000013E-3
2.931001094E1,-5.739999935E-2,-3.909999877E-2,2.799999900E-2
2.934001250E1,-5.299999844E-3,3.999999899E-4,5.749999732E-2
2.937001406E1,2.459999919E-2,1.759999990E-2,4.749999940E-2
2.939998438E1,3.179999813E-2,1.559999958E-2,-1.699999906E-3
2.942000781E1,3.029999882E-2,-1.319999993E-2,1.779999956E-2
2.945000938E1,4.820000008E-2,-1.150000002E-2,4.729999974E-2
2.948001094E1,-2.799999900E-3,-1.009999961E-2,4.739999771E-2
2.951001250E1,-1.219999976E-2,-1.879999973E-2,5.729999766E-2
2.954001406E1,-2.049999870E-2,-7.899999619E-3,8.399999700E-3
2.956998594E1,-4.949999973E-2,2.039999887E-2,1.819999889E-2
2.959000781E1,-5.799999833E-2,1.019999944E-2,8.399999700E-3
2.962001094E1,-1.719999872E-2,-1.850000024E-2,8.499999531E-3
2.965001250E1,-3.649999946E-2,1.150000002E-2,6.740000099E-2
2.968001406E1,-5.399999674E-3,1.909999922E-2,3.779999912E-2
2.970998438E1,2.369999886E-2,8.700000122E-3,1.809999906E-2
2.973000781E1,2.300000004E-2,-1.999999862E-3,2.779999934E-2
2.976000938E1,1.970000006E-2,-3.879999742E-2,5.739999935E-2
2.979001094E1,-2.769999951E-2,1.489999983E-2,7.299999706E-3
2.982001406E1,-2.539999969E-2,1.439999975E-2,-2.399999881E-3
2.985001562E1,-3.799999831E-3,3.999999724E-3,-2.199999988E-2
2.987998594E1,5.399999674E-3,2.899999963E-3,-1.229999959E-2
2.990000781E1,-4.100000020E-3,2.139999904E-2,2.669999935E-2
2.993001094E1,5.799999926E-3,-8.399999700E-3,7.100000046E-3
2.996001250E1,-3.599999938E-3,-1.699999906E-2,2.679999918E-2
2.999001406E1,-3.899999894E-3,-5.699999630E-3,3.680000082E-2
3.001998438E1,1.499999966E-2,3.159999847E-2,1.699999906E-2
3.004000781E1,2.379999869E-2,1.150000002E-2,-2.600000007E-3
3.007000938E1,2.359999903E-2,2.070000023E-2,6.999999750E-3
3.010001250E1,1.260000002E-2,9.599999525E-3,-1.260000002E-2
3.013001406E1,-5.389999971E-2,-6.689999998E-2,-2.600000007E-3
3.016001563E1,-1.189999934E-2,-1.459999941E-2,3.689999878E-2
3.018998594E1,2.730000019E-2,6.129999831E-2,2.689999901E-2
3.021000781E1,6.439999491E-2,5.849999934E-2,1.669999957E-2
3.024000938E1,4.059999809E-2,-4.820000008E-2,-4.199999943E-2
3.027001250E1,4.729999974E-2,-1.579999924E-2,-2.600000007E-3
3.030001406E1,-3.059999831E-2,4.149999842E-2,-2.840000018E-2
3.032998594E1,-1.054999977E-1,4.059999809E-2,-1.860000007E-2
3.035000781E1,-8.980000019E-2,4.859999940E-2,1.069999952E-2
3.038000938E1,-4.419999942E-2,3.469999880E-2,-1.879999973E-2
3.041001250E1,2.499999851E-2,-1.429999992E-2,-5.799999833E-2
3.044001406E1,6.119999662E-2,-6.780000031E-2,-2.819999866E-2
3.047001563E1,7.859999686E-2,-6.599999964E-3,3.070000000E-2
3.049998594E1,5.379999802E-2,3.979999945E-2,3.029999882E-2
3.052000938E1,5.150000006E-2,2.869999968E-2,6.999999750E-4
3.055001094E1,3.859999776E-2,-2.899999917E-2,-8.999999613E-3
3.058001250E1,2.589999884E-2,-2.579999901E-2,4.019999877E-2
3.061001406E1,-2.290000021E-2,2.199999988E-2,2.039999887E-2
3.063998594E1,-6.610000134E-2,1.500000013E-3,-3.819999844E-2
3.066000781E1,-9.129999578E-2,-3.590000048E-2,-1.829999872E-2
3.069000938E1,-4.939999804E-2,-5.799999926E-3,2.089999989E-2
3.072001250E1,-8.499999531E-3,-1.399999950E-2,3.089999966E-2
3.075001406E1,3.009999916E-2,5.699999630E-3,1.500000013E-3
3.077998438E1,6.579999626E-2,-1.129999943E-2,4.999999655E-4
3.080000625E1,6.289999932E-2,7.899999619E-3,3.999999899E-4
3.083000938E1,4.099999741E-2,-2.499999944E-3,-3.879999742E-2
3.086001094E1,9.399999864E-3,-2.899999963E-3,-2.909999900E-2
3.089001250E1,-6.999999750E-4,-1.299999934E-2,-9.499999695E-3
3.092001562E1,-5.999999703E-4,-3.009999916E-2,-3.869999945E-2
3.094998594E1,-2.950000018E-2,-2.899999917E-2,-3.859999776E-2
3.097000781E1,-1.840000041E-2,-7.499999832E-3,-8.999999613E-3
3.100000938E1,2.300000051E-3,1.159999985E-2,-3.839999810E-2
3.103001094E1,1.799999969E-3,8.999999845E-4,-1.889999956E-2
3.106001406E1,-7.999999449E-3,2.879999951E-2,-2.889999934E-2
3.108998438E1,1.699999906E-3,8.399999700E-3,-3.869999945E-2
3.111000625E1,1.199999941E-3,-1.899999916E-3,-2.899999917E-2
3.114000938E1,1.009999961E-2,-1.069999952E-2,-9.300000034E-3
3.117001094E1,1.909999922E-2,8.599999361E-3,-5.839999765E-2
3.120001250E1,8.999999613E-3,-3.729999810E-2,-5.810000002E-2
3.123001563E1,-6.999999750E-4,3.499999875E-3,7.999999798E-4
3.125998594E1,-2.009999938E-2,5.719999969E-2,-2.899999917E-2
3.128000781E1,-1.069999952E-2,1.459999941E-2,9.999999311E-4
3.131001094E1,2.799999900E-2,-4.360000044E-2,2.060000040E-2
3.134001250E1,3.500000015E-2,-2.999999933E-2,-8.399999700E-3
3.137001406E1,-6.099999882E-3,-8.999999845E-4,-1.829999872E-2
3.139998438E1,3.700000001E-3,3.529999778E-2,1.069999952E-2
3.142000625E1,1.289999951E-2,1.499999966E-2,7.999999798E-4
3.145000938E1,1.159999985E-2,1.359999925E-2,-2.859999985E-2
3.148001094E1,-7.599999662E-3,1.229999959E-2,-3.859999776E-2
3.151001250E1,2.799999900E-3,-1.589999907E-2,6.999999750E-4
3.154001563E1,1.279999968E-2,3.150000051E-2,-1.899999939E-2
3.156998594E1,-7.299999706E-3,-8.100000210E-3,-3.859999776E-2
3.159000781E1,-1.679999940E-2,-3.629999980E-2,2.019999921E-2
3.162000938E1,-2.520000003E-2,3.899999894E-3,3.019999899E-2
3.165001250E1,5.699999630E-3,3.189999983E-2,-1.879999973E-2
3.168001406E1,-1.299999934E-2,2.600000007E-3,-4.820000008E-2
3.170998438E1,1.609999873E-2,-4.429999739E-2,-8.799999952E-3
3.173000781E1,3.500000015E-2,-4.270000011E-2,-8.700000122E-3
3.176000938E1,2.259999886E-2,1.630000025E-2,1.079999935E-2
3.179001094E1,3.309999779E-2,1.559999958E-2,8.999999845E-4
3.182001250E1,4.299999680E-3,-4.199999850E-3,-3.819999844E-2
3.185001562E1,-5.599999800E-3,-3.209999949E-2,1.079999935E-2
3.187998594E1,-5.099999718E-3,3.619999811E-2,9.999999311E-4
3.190000781E1,-1.420000009E-2,5.339999869E-2,-8.899999782E-3
3.193000938E1,2.469999902E-2,-3.489999846E-2,-1.869999990E-2
3.196001250E1,4.999999888E-3,-1.269999985E-2,-1.850000024E-2
3.199001406E1,-1.469999924E-2,6.999999750E-3,-2.829999849E-2
3.201998438E1,-1.339999959E-2,2.609999850E-2,-2.829999849E-2
3.204000781E1,5.799999926E-3,-3.099999856E-3,1.079999935E-2
3.207000938E1,-3.700000001E-3,-4.699999932E-3,2.049999870E-2
3.210001094E1,-3.799999831E-3,1.359999925E-2,-8.899999782E-3
3.213001406E1,-1.420000009E-2,2.209999971E-2,-1.889999956E-2
3.216001562E1,-1.339999959E-2,-2.559999935E-2,-2.850000001E-2
3.218998594E1,1.689999923E-2,-4.289999977E-2,4.019999877E-2
3.221000781E1,7.199999876E-3,-2.799999900E-3,2.070000023E-2
3.224001094E1,-3.099999856E-3,5.059999973E-2,2.019999921E-2
3.227001250E1,6.699999794E-3,1.599999960E-3,-9.099999443E-3
3.230001406E1,-2.329999954E-2,-1.719999872E-2,-3.599999938E-3
3.232998438E1,-2.190000005E-2,-7.100000046E-3,-1.329999976E-2
3.235000625E1,-1.069999952E-2,1.279999968E-2,6.199999712E-3
3.238000938E1,8.399999700E-3,2.089999989E-2,4.529999942E-2
3.241001094E1,3.619999811E-2,1.009999961E-2,-3.799999831E-3
3.244001406E1,4.900000058E-3,8.399999700E-3,-3.999999724E-3
3.247001562E1,5.499999970E-3,1.769999973E-2,4.490000010E-2
3.249998438E1,-2.269999869E-2,-2.300000051E-3,1.549999975E-2
3.252000781E1,2.520000003E-2,-2.080000006E-2,-2.349999920E-2
3.255000938E1,5.389999971E-2,-1.909999922E-2,3.529999778E-2
3.258001250E1,2.229999937E-2,-8.100000210E-3,5.499999970E-2
3.261001406E1,2.099999925E-3,-1.809999906E-2,5.899999756E-3
3.263998594E1,-3.509999812E-2,-3.559999913E-2,-3.499999875E-3
3.266000781E1,-1.480000000E-2,-6.000000052E-3,1.599999890E-2
3.269000938E1,-3.999999724E-3,-2.549999952E-2,2.589999884E-2
3.272001094E1,1.489999983E-2,-5.299999844E-3,3.570000082E-2
3.275001250E1,5.299999844E-3,-5.599999800E-3,-1.329999976E-2
3.278001563E1,2.429999970E-2,-1.289999951E-2,-4.999999655E-4
3.280998594E1,1.299999934E-2,-2.209999971E-2,-1.030000020E-2
3.283000938E1,2.199999988E-3,7.299999706E-3,-4.999999655E-4
3.286001094E1,-3.460000083E-2,5.319999903E-2,-6.999999750E-4
3.289001250E1,-1.389999967E-2,1.249999925E-2,-4.010000080E-2
3.292001406E1,-3.700000001E-3,-2.510000020E-2,-1.049999986E-2
3.294998594E1,1.509999949E-2,-2.309999987E-2,-2.009999938E-2
3.297000781E1,4.339999706E-2,-1.310000010E-2,-2.019999921E-2
3.300000938E1,3.119999915E-2,1.499999966E-2,-2.029999904E-2
3.303001094E1,1.019999944E-2,4.100000020E-3,-3.029999882E-2
3.306001406E1,-2.999999851E-4,3.189999983E-2,-2.060000040E-2
3.309001562E1,-4.849999771E-2,1.189999934E-2,-9.999999311E-4
3.311998594E1,7.999999798E-4,1.090000011E-2,-1.099999994E-3
3.314000938E1,4.769999906E-2,-8.100000210E-3,-4.030000046E-2
3.317001094E1,2.740000002E-2,-5.480000004E-2,-4.019999877E-2
3.320001250E1,7.499999832E-3,-2.159999870E-2,-5.999999703E-4
3.323001406E1,2.679999918E-2,4.619999975E-2,-1.049999986E-2
3.325998594E1,-2.699999837E-3,3.199999779E-2,8.599999361E-3
3.328000781E1,5.899999756E-3,1.850000024E-2,1.699999906E-3
3.331000938E1,-4.100000020E-3,-3.849999979E-2,1.899999916E-3
3.334001250E1,-3.150000051E-2,-1.649999991E-2,2.199999988E-3
3.337001406E1,8.100000210E-3,2.300000051E-3,2.099999925E-3
3.340001562E1,2.659999952E-2,1.179999951E-2,2.169999853E-2
3.342998594E1,2.620000020E-2,1.209999993E-2,2.099999925E-3
3.345000938E1,-3.399999812E-3,9.999999311E-4,1.899999916E-3
3.348001094E1,5.399999674E-3,1.049999986E-2,3.130000085E-2
3.351001250E1,-2.339999937E-2,-8.200000040E-3,1.179999951E-2
3.354001406E1,-3.499999875E-3,-8.399999700E-3,3.139999881E-2
3.356998594E1,-2.899999963E-3,1.099999994E-2,1.999999862E-3
3.359000781E1,1.669999957E-2,-9.099999443E-3,2.149999887E-2
3.362000938E1,6.699999794E-3,-7.999999449E-3,-7.699999958E-3
3.365001250E1,-2.290000021E-2,1.229999959E-2,2.169999853E-2
3.368001406E1,5.899999756E-3,2.699999837E-3,-7.599999662E-3
3.370998438E1,-1.310000010E-2,2.219999954E-2,3.150000051E-2
3.373000625E1,-2.279999852E-2,-7.799999788E-3,1.999999862E-3
3.376000938E1,-2.899999963E-3,1.099999994E-3,3.139999881E-2
3.379001094E1,-1.169999968E-2,-7.400000002E-3,7.599999662E-3
3.382001250E1,7.999999449E-3,-6.799999624E-3,-1.999999862E-3
3.385001563E1,1.699999906E-2,-5.599999800E-3,2.740000002E-2
3.387998594E1,-1.329999976E-2,-6.000000052E-3,-1.999999862E-3
3.390000781E1,-3.399999812E-3,-1.509999949E-2,7.799999788E-3
3.393001094E1,-1.219999976E-2,-2.510000020E-2,7.799999788E-3
3.396001250E1,-1.699999906E-3,-5.799999926E-3,-1.179999951E-2
3.399001406E1,8.100000210E-3,-1.620000042E-2,1.750000007E-2
3.401998438E1,8.599999361E-3,2.199999988E-3,-1.189999934E-2
3.404000625E1,-9.999999311E-4,-1.649999991E-2,-2.159999870E-2
3.407000938E1,3.639999777E-2,2.329999954E-2,-1.999999862E-3
3.410001094E1,6.799999624E-3,3.799999831E-3,7.699999958E-3
3.413001250E1,1.630000025E-2,-1.599999890E-2,-1.999999862E-3
3.416001406E1,-1.279999968E-2,2.269999869E-2,1.750000007E-2
3.418998594E1,-1.310000010E-2,2.129999921E-2,-1.200000010E-2
3.421000781E1,-1.249999925E-2,-2.689999901E-2,1.740000024E-2
3.424000938E1,-1.189999934E-2,-2.389999852E-2,1.769999973E-2
3.427001250E1,7.299999706E-3,6.229999661E-2,2.730000019E-2
3.430001406E1,6.899999920E-3,5.999999703E-4,-5.499999970E-3
3.432998438E1,-3.099999856E-3,-3.639999777E-2,-5.299999844E-3
3.435000625E1,-2.899999963E-3,-3.469999880E-2,2.419999987E-2
3.438000938E1,-2.229999937E-2,-3.700000001E-3,-4.999999888E-3
3.441001094E1,7.599999662E-3,2.489999868E-2,2.429999970E-2
3.444001250E1,2.599999867E-2,2.180000022E-2,3.379999846E-2
3.447001562E1,2.449999936E-2,1.189999934E-2,-5.399999674E-3
3.449998594E1,-5.699999630E-3,1.699999906E-3,2.379999869E-2
3.452000781E1,-4.299999774E-2,1.599999960E-3,1.409999933E-2
3.455000938E1,-3.199999919E-3,1.109999977E-2,2.389999852E-2
3.458001250E1,-3.399999812E-3,6.999999750E-4,-5.499999970E-3
3.461001406E1,2.520000003E-2,-2.779999934E-2,2.389999852E-2
3.463998438E1,-4.199999850E-3,-6.300000008E-3,1.420000009E-2
3.466000781E1,-3.999999724E-3,3.199999919E-3,-5.299999844E-3
3.469000938E1,-3.399999812E-3,-6.699999794E-3,4.399999976E-3
3.472001094E1,-2.229999937E-2,1.249999925E-2,1.420000009E-2
3.475001250E1,7.100000046E-3,1.239999942E-2,4.399999976E-3
3.478001563E1,6.300000008E-3,1.399999950E-3,1.999999949E-4
3.480998594E1,6.899999920E-3,1.199999941E-3,1.999999949E-4
3.483000781E1,-1.209999993E-2,1.799999969E-3,1.009999961E-2
3.486001094E1,-3.399999812E-3,-1.719999872E-2,2.969999984E-2
3.489001250E1,6.399999838E-3,2.129999921E-2,3.949999809E-2
3.492001406E1,-2.600000007E-3,1.399999950E-3,1.009999961E-2
3.494998438E1,-1.189999934E-2,1.599999960E-3,1.009999961E-2
3.497000781E1,1.789999940E-2,1.179999951E-2,-9.399999864E-3
3.500000938E1,-2.070000023E-2,-1.659999974E-2,3.969999775E-2
3.503001094E1,9.099999443E-3,1.279999968E-2,4.949999973E-2
3.506001250E1,8.200000040E-3,2.159999870E-2,2.979999967E-2
3.509001562E1,8.299999870E-3,1.209999993E-2,1.019999944E-2
3.511998594E1,-1.399999950E-3,-6.499999668E-3,1.030000020E-2
3.514000781E1,2.669999935E-2,1.249999925E-2,-9.300000034E-3
3.517001094E1,7.199999876E-3,1.239999942E-2,-9.300000034E-3
3.520001250E1,-1.090000011E-2,-3.449999914E-2,2.999999933E-2
3.523001406E1,-1.099999994E-3,2.479999885E-2,5.949999765E-2
3.525998438E1,8.299999870E-3,4.949999973E-2,9.999999776E-3
3.528000781E1,-6.999999750E-4,1.219999976E-2,9.999999311E-4
3.531000938E1,-5.999999703E-4,-2.569999918E-2,1.099999994E-3
3.534001250E1,7.899999619E-3,-3.319999948E-2,-8.399999700E-3
3.537001250E1,8.399999700E-3,-2.600000007E-3,-1.809999906E-2
3.540001562E1,8.599999361E-3,2.499999851E-2,1.300000004E-3
3.542998594E1,2.699999884E-2,4.799999762E-3,-8.499999531E-3
3.545000781E1,3.559999913E-2,1.439999975E-2,-2.819999866E-2
3.548001094E1,5.299999844E-3,1.370000001E-2,-1.850000024E-2
3.551001250E1,-1.319999993E-2,3.799999831E-3,-8.599999361E-3
3.554001406E1,1.519999932E-2,3.199999779E-2,8.999999845E-4
3.556998594E1,-4.100000020E-3,2.600000007E-3,-1.860000007E-2
3.559000781E1,1.519999932E-2,-7.199999876E-3,-1.860000007E-2
3.562000938E1,2.359999903E-2,-2.459999919E-2,1.099999994E-3
3.565001094E1,4.299999680E-3,-4.699999932E-3,1.099999994E-3
3.568001406E1,-4.499999806E-3,1.349999942E-2,2.070000023E-2
3.571001563E1,1.469999924E-2,1.249999925E-2,1.069999952E-2
3.573998594E1,-1.459999941E-2,2.799999900E-3,9.999999311E-4
3.576000938E1,4.699999932E-3,2.600000007E-3,2.049999870E-2
3.579001094E1,4.900000058E-3,1.239999942E-2,9.899999946E-3
3.582001250E1,4.999999888E-3,-7.999999449E-3,-9.699999355E-3
3.585001406E1,4.799999762E-3,-1.740000024E-2,0.000000000E0
3.587998594E1,-4.900000058E-3,-6.999999750E-3,9.999999747E-5
3.590000781E1,-4.699999932E-3,2.699999837E-3,-1.939999871E-2
3.593000781E1,6.499999668E-3,1.229999959E-2,-9.599999525E-3
3.596001094E1,-2.099999925E-3,-2.529999986E-2,2.999999851E-4
3.599001250E1,-2.899999963E-3,-1.569999941E-2,1.999999949E-4
3.602001562E1,-3.499999875E-3,2.699999837E-3,9.999999747E-5
3.604998594E1,-2.899999963E-3,-7.100000046E-3,-2.919999883E-2
3.607000938E1,-2.229999937E-2,3.000000026E-3,9.999999776E-3
3.610001094E1,-2.899999963E-3,-5.699999630E-3,1.999999949E-4
3.613001250E1,-2.279999852E-2,1.279999968E-2,-9.599999525E-3
3.616001406E1,-2.899999963E-3,1.299999934E-2,9.999999776E-3
3.618998594E1,7.400000002E-3,2.099999925E-3,9.999999747E-5
3.621000781E1,-1.249999925E-2,-2.639999986E-2,-9.599999525E-3
3.624000938E1,7.199999876E-3,3.799999831E-3,2.960000001E-2
3.627001250E1,1.669999957E-2,3.089999966E-2,0.000000000E0
3.630001406E1,-1.239999942E-2,1.919999905E-2,4.600000102E-3
3.633001562E1,-1.279999968E-2,-2.969999984E-2,-3.449999914E-2
3.635998594E1,5.799999926E-3,-2.649999969E-2,-1.469999924E-2
3.638000938E1,-3.700000001E-3,-1.579999924E-2,-4.399999976E-2
3.641001094E1,6.199999712E-3,-1.539999992E-2,-3.419999778E-2
3.644001250E1,6.499999668E-3,3.269999847E-2,-4.799999762E-3
3.647001562E1,3.480000049E-2,2.199999988E-2,-4.900000058E-3
3.649998594E1,-1.439999975E-2,1.960000023E-2,-3.460000083E-2
3.652000781E1,-1.379999984E-2,1.999999949E-4,-3.449999914E-2
3.655000938E1,-1.359999925E-2,-1.889999956E-2,4.699999932E-3
3.658001250E1,-1.359999925E-2,9.300000034E-3,-3.460000083E-2
3.661001406E1,6.499999668E-3,-1.860000007E-2,1.449999958E-2
3.663998438E1,6.000000052E-3,-6.399999838E-3,2.449999936E-2
3.666000625E1,-1.289999951E-2,3.099999856E-3,-4.799999762E-3
3.669000938E1,-2.119999938E-2,1.260000002E-2,-4.399999976E-2
3.672001094E1,9.099999443E-3,1.300000004E-3,-3.429999948E-2
3.675001250E1,1.899999939E-2,-3.649999946E-2,-4.799999762E-3
3.678001563E1,-1.129999943E-2,9.999999776E-3,4.999999655E-4
3.680998594E1,8.700000122E-3,1.049999986E-2,5.999999703E-4
3.683000781E1,7.899999619E-3,-1.799999923E-2,6.999999750E-4
3.686000938E1,1.579999924E-2,-1.649999991E-2,1.049999986E-2
3.689001250E1,-4.900000058E-3,2.399999881E-3,5.999999703E-4
3.692001406E1,-1.420000009E-2,2.699999837E-3,-1.879999973E-2
3.694998438E1,1.529999916E-2,-3.659999743E-2,6.999999750E-4
3.697000781E1,-1.379999984E-2,2.399999881E-3,-8.999999613E-3
3.700000938E1,-3.139999881E-2,-6.199999712E-3,-8.899999782E-3
3.703000938E1,-1.500000013E-3,-6.399999838E-3,-8.899999782E-3
3.706001250E1,6.699999794E-3,1.279999968E-2,2.039999887E-2
3.709001562E1,6.000000052E-3,-1.750000007E-2,5.999999703E-4
3.711998594E1,3.359999880E-2,2.300000051E-3,5.999999703E-4
3.714000781E1,3.209999949E-2,3.979999945E-2,-2.889999934E-2
3.717001094E1,-6.699999794E-3,-1.999999949E-4,-9.300000034E-3
3.720001250E1,-1.589999907E-2,-2.730000019E-2,2.999999933E-2
3.723001406E1,2.339999937E-2,2.300000051E-3,5.999999703E-4
3.725998438E1,2.219999954E-2,9.800000116E-3,3.999999899E-4
3.728000625E1,-1.609999873E-2,0.000000000E0,-3.999999899E-4
3.731000938E1,1.299999934E-2,-2.960000001E-2,-2.979999967E-2
3.734001094E1,-3.409999982E-2,-2.829999849E-2,1.929999888E-2
3.737001250E1,1.630000025E-2,2.129999921E-2,1.939999871E-2
3.740001562E1,1.609999873E-2,1.929999888E-2,-2.999999851E-4
3.742998594E1,-4.999999888E-3,2.859999985E-2,-1.019999944E-2
3.745000781E1,3.199999919E-3,1.759999990E-2,9.099999443E-3
3.748001094E1,-1.569999941E-2,-1.119999960E-2,1.899999939E-2
3.751001250E1,-5.299999844E-3,-1.079999935E-2,2.889999934E-2
3.754001406E1,4.900000058E-3,-9.999999311E-4,9.300000034E-3
3.756998438E1,5.099999718E-3,-4.999999655E-4,9.300000034E-3
3.759000781E1,5.299999844E-3,-2.950000018E-2,2.899999917E-2
3.762000938E1,-3.599999938E-3,-8.799999952E-3,-4.930000007E-2
3.765001094E1,-1.239999942E-2,1.059999969E-2,-9.999999776E-3
3.768001250E1,6.499999668E-3,1.899999939E-2,9.399999864E-3
3.771001563E1,-3.899999894E-3,0.000000000E0,9.399999864E-3
3.773998594E1,-4.799999762E-3,9.200000204E-3,9.300000034E-3
3.776000781E1,-4.600000102E-3,1.809999906E-2,9.200000204E-3
3.779001094E1,5.200000014E-3,-7.699999958E-3,-1.199999941E-3
3.782001250E1,2.349999920E-2,-1.599999890E-2,-1.090000011E-2
3.785001406E1,1.349999942E-2,2.259999886E-2,-1.090000011E-2
3.787998438E1,-5.899999756E-3,1.229999959E-2,-2.080000006E-2
3.790000781E1,-5.599999800E-3,-2.559999935E-2,-2.060000040E-2
3.793000938E1,-5.299999844E-3,3.599999938E-3,-3.049999848E-2
3.796001094E1,5.299999844E-3,-6.199999712E-3,-3.039999865E-2
3.799001406E1,-4.199999850E-3,4.600000102E-3,-3.029999882E-2
3.802001406E1,-4.699999932E-3,-1.429999992E-2,-1.069999952E-2
3.804998594E1,4.399999976E-3,-2.269999869E-2,-1.059999969E-2
3.807000781E1,1.359999925E-2,1.620000042E-2,-7.999999798E-4
3.810000938E1,2.219999954E-2,6.140000001E-2,-2.080000006E-2
3.813001250E1,-1.609999873E-2,1.199999941E-3,-2.089999989E-2
3.816001406E1,3.599999938E-3,-2.669999935E-2,-3.059999831E-2
3.818998438E1,-6.300000008E-3,-1.609999873E-2,-1.090000011E-2
3.821000781E1,-3.409999982E-2,-1.519999932E-2,-2.060000040E-2
3.824000938E1,-3.109999932E-2,1.379999984E-2,-1.069999952E-2
3.827001094E1,2.639999986E-2,2.309999987E-2,-2.060000040E-2
3.830001406E1,-4.600000102E-3,1.999999955E-2,-7.199999876E-3
3.833001562E1,-4.799999762E-3,9.800000116E-3,-7.199999876E-3
3.835998438E1,3.999999724E-3,-2.999999851E-4,1.229999959E-2
3.838000781E1,3.799999831E-3,-3.999999899E-4,2.199999988E-2
3.841001094E1,-1.669999957E-2,-1.009999961E-2,-7.299999706E-3
3.844001094E1,2.600000007E-3,-2.759999968E-2,-7.100000046E-3
3.847001406E1,-7.199999876E-3,-7.599999662E-3,1.239999942E-2
3.849998594E1,-2.529999986E-2,-6.499999668E-3,-6.899999920E-3
3.852000781E1,-2.419999987E-2,2.190000005E-2,-1.679999940E-2
3.855000938E1,-1.289999951E-2,3.079999983E-2,2.699999837E-3
3.858001094E1,-3.299999982E-3,7.999999798E-4,2.219999954E-2
3.861001250E1,6.199999712E-3,1.059999969E-2,2.600000007E-3
3.864001563E1,5.200000014E-3,5.999999703E-4,1.239999942E-2
3.866998594E1,5.399999674E-3,-1.889999956E-2,-7.100000046E-3
3.869000938E1,4.299999680E-3,6.999999750E-4,-7.199999876E-3
3.872001094E1,3.999999724E-3,2.999999851E-4,-7.199999876E-3
3.875001250E1,-4.199999850E-3,-9.300000034E-3,2.600000007E-3
3.878001406E1,-3.179999813E-2,1.099999994E-3,-6.999999750E-4
3.880998594E1,-9.999999311E-4,-8.100000210E-3,-2.029999904E-2
3.883000781E1,-2.099999972E-2,-8.100000210E-3,-2.029999904E-2
3.886000938E1,8.499999531E-3,2.399999881E-3,-2.019999921E-2
3.889001094E1,-1.199999941E-3,1.129999943E-2,-2.029999904E-2
3.892001406E1,-2.060000040E-2,-4.490000010E-2,-2.979999967E-2
3.895001562E1,8.799999952E-3,-3.299999982E-3,-1.979999989E-2
3.897998594E1,-1.199999941E-3,6.140000001E-2,-2.999999933E-2
3.900000938E1,8.100000210E-3,3.999999911E-2,8.999999613E-3
3.903001094E1,-6.999999750E-4,-4.779999703E-2,-2.029999904E-2
3.906001250E1,-9.999999311E-4,-5.260000005E-2,-1.999999949E-4
3.909001406E1,-1.079999935E-2,6.000000052E-3,-1.989999972E-2
3.911998438E1,-9.800000116E-3,2.369999886E-2,-1.019999944E-2
3.914000781E1,9.300000034E-3,3.799999831E-3,1.909999922E-2
3.917000938E1,2.809999883E-2,1.269999985E-2,-1.030000020E-2
3.920001094E1,-1.899999916E-3,3.009999916E-2,-3.019999899E-2
3.923001406E1,-1.799999969E-3,-9.399999864E-3,-2.039999887E-2
3.926001562E1,-1.599999960E-3,9.699999355E-3,-7.999999798E-4
3.928998594E1,8.599999361E-3,-4.999999655E-4,-9.200000204E-3
3.931000938E1,-9.999999311E-4,-3.869999945E-2,-1.889999956E-2
3.934001094E1,1.689999923E-2,-1.730000041E-2,-2.859999985E-2
3.937001250E1,-2.159999870E-2,-7.499999832E-3,-4.820000008E-2
3.940001406E1,-1.079999935E-2,-1.689999923E-2,-8.899999782E-3
3.942998594E1,8.399999700E-3,1.279999968E-2,-1.869999990E-2
3.945000781E1,1.779999956E-2,2.209999971E-2,-8.999999613E-3
3.948000938E1,7.799999788E-3,1.999999862E-3,-1.879999973E-2
3.951001094E1,7.400000002E-3,-2.649999969E-2,-8.899999782E-3
3.954001406E1,1.620000042E-2,-5.699999630E-3,-8.899999782E-3
3.956998438E1,-3.499999875E-3,-5.399999674E-3,-8.799999952E-3
3.959000625E1,5.499999970E-3,-5.099999718E-3,-1.860000007E-2
3.962000938E1,-4.600000102E-3,-5.299999844E-3,-1.869999990E-2
3.965001094E1,-1.379999984E-2,-1.569999941E-2,-1.869999990E-2
3.968001250E1,-3.599999938E-3,-2.389999852E-2,-1.860000007E-2
3.971001406E1,2.589999884E-2,-3.199999919E-3,-2.829999849E-2
3.973998594E1,1.480000000E-2,1.579999924E-2,-1.850000024E-2
3.976000781E1,1.409999933E-2,1.519999932E-2,-1.860000007E-2
3.979001094E1,5.200000014E-3,1.469999924E-2,-2.060000040E-2
3.982001250E1,5.599999800E-3,1.279999968E-2,-3.059999831E-2
3.985001406E1,-4.299999680E-3,-2.589999884E-2,-2.080000006E-2
3.987998438E1,-1.289999951E-2,-3.299999982E-2,8.799999952E-3
3.990000781E1,-1.229999959E-2,5.799999926E-3,1.860000007E-2
3.993000781E1,-3.299999982E-3,6.229999661E-2,-1.099999994E-3
3.996001094E1,-1.269999985E-2,-1.750000007E-2,-1.109999977E-2
3.999001250E1,5.599999800E-3,-2.599999867E-2,-1.099999994E-2
4.002001406E1,-4.100000020E-3,-1.519999932E-2,-1.090000011E-2
4.004998594E1,-2.389999852E-2,2.309999987E-2,-1.099999994E-2
4.007000781E1,-3.700000001E-3,-1.689999923E-2,-1.199999941E-3
4.010000938E1,1.449999958E-2,-1.740000024E-2,-1.300000004E-3
4.013001250E1,2.329999954E-2,1.699999906E-3,-1.399999950E-3
4.016001406E1,2.169999853E-2,2.039999887E-2,-2.109999955E-2
4.018998438E1,1.229999959E-2,3.070000000E-2,-3.089999966E-2
4.021000781E1,-6.899999920E-3,-8.399999700E-3,-1.399999950E-3
4.024000938E1,-6.300000008E-3,-1.750000007E-2,2.799999900E-2
4.027001094E1,2.799999900E-3,-1.719999872E-2,1.819999889E-2
4.030001250E1,-6.999999750E-3,-9.699999355E-3,9.599999525E-3
4.033001562E1,3.399999812E-3,-8.499999531E-3,1.950000040E-2
4.035998594E1,-5.399999674E-3,1.300000004E-3,9.699999355E-3
4.038000781E1,-2.400000021E-2,1.989999972E-2,1.950000040E-2
4.041000938E1,5.499999970E-3,-2.019999921E-2,9.599999525E-3
4.044001250E1,-1.489999983E-2,-8.899999782E-3,1.950000040E-2
4.047001406E1,2.269999869E-2,-8.700000122E-3,1.950000040E-2
4.049998438E1,1.169999968E-2,1.099999994E-3,1.950000040E-2
4.052000625E1,-7.499999832E-3,-8.299999870E-3,1.950000040E-2
4.055000938E1,-7.999999449E-3,1.300000004E-3,3.909999877E-2
4.058001094E1,-2.609999850E-2,-1.799999923E-2,9.699999355E-3
4.061001250E1,-5.399999674E-3,-1.819999889E-2,0.000000000E0
4.064001563E1,-2.419999987E-2,-8.299999870E-3,1.960000023E-2
4.066998594E1,4.900000058E-3,-8.499999531E-3,4.899999872E-2
4.069000781E1,1.480000000E-2,4.999999655E-4,3.909999877E-2
4.072001094E1,-5.499999970E-3,-1.899999939E-2,0.000000000E0
4.075001250E1,1.420000009E-2,-8.799999952E-3,9.699999355E-3
4.078001406E1,-2.269999869E-2,1.420000009E-2,5.999999703E-4
4.080998438E1,-1.399999950E-2,-1.620000042E-2,4.999999655E-4
4.083000625E1,-1.249999925E-2,-5.599999800E-3,-9.099999443E-3
4.086000938E1,-1.229999959E-2,5.399999674E-3,1.049999986E-2
4.089001094E1,-2.699999837E-3,6.149999797E-2,-1.909999922E-2
4.092001406E1,-1.139999926E-2,-8.299999870E-3,-1.909999922E-2
4.095001563E1,2.730000019E-2,-2.759999968E-2,-9.300000034E-3
4.097998594E1,-1.279999968E-2,-1.569999941E-2,-9.200000204E-3
4.100000781E1,-2.159999870E-2,-5.599999800E-3,-1.889999956E-2
4.103000938E1,-1.169999968E-2,1.379999984E-2,-2.869999968E-2
4.106001250E1,7.199999876E-3,2.290000021E-2,-1.899999939E-2
4.109001406E1,1.659999974E-2,3.170000017E-2,-2.889999934E-2
4.111998594E1,1.480000000E-2,1.999999955E-2,9.999999776E-3
4.114000781E1,4.799999762E-3,3.999999899E-4,-9.499999695E-3
4.117000938E1,-1.529999916E-2,-1.899999939E-2,-9.499999695E-3
4.120001094E1,-4.199999850E-3,-8.399999700E-3,-2.899999917E-2
4.123001250E1,-3.999999724E-3,2.199999988E-3,1.019999944E-2
4.126001406E1,5.200000014E-3,-2.559999935E-2,-9.200000204E-3
4.128998594E1,-4.199999850E-3,-8.999999613E-3,1.999999949E-4
4.131000781E1,-2.319999970E-2,2.099999972E-2,2.999999851E-4
4.134001094E1,-2.899999963E-3,1.919999905E-2,1.979999989E-2
4.137001250E1,6.099999882E-3,-9.999999747E-5,2.960000001E-2
4.140001406E1,2.339999937E-2,9.499999695E-3,9.999999747E-5
4.142998438E1,4.100000020E-3,9.999999747E-5,1.979999989E-2
4.145000781E1,3.399999812E-3,-9.300000034E-3,1.979999989E-2
4.148000938E1,-5.699999630E-3,1.500000013E-3,1.009999961E-2
4.151001094E1,-2.469999902E-2,-7.899999619E-3,2.969999984E-2
4.154001406E1,-2.339999937E-2,-1.659999974E-2,4.999999655E-4
4.157001562E1,-2.290000021E-2,-6.599999964E-3,1.030000020E-2
4.159998594E1,-2.129999921E-2,2.799999900E-3,1.030000020E-2
4.162000781E1,7.599999662E-3,1.189999934E-2,2.979999967E-2
4.165001094E1,-1.269999985E-2,1.169999968E-2,1.019999944E-2
4.168001250E1,1.469999924E-2,1.999999955E-2,9.999999776E-3
4.171001406E1,2.429999970E-2,9.699999355E-3,9.999999776E-3
4.173998438E1,3.399999812E-3,9.599999525E-3,9.899999946E-3
4.176000781E1,-6.000000052E-3,1.840000041E-2,1.960000023E-2
4.179000938E1,-5.699999630E-3,1.970000006E-2,-1.860000007E-2
4.182001094E1,-3.289999813E-2,-3.769999743E-2,-8.599999361E-3
4.185001406E1,-3.229999915E-2,3.499999875E-3,1.109999977E-2
4.188001563E1,6.599999964E-3,5.819999799E-2,1.069999952E-2
4.190998594E1,1.559999958E-2,2.699999884E-2,1.059999969E-2
4.193000781E1,1.579999924E-2,-1.249999925E-2,6.999999750E-4
4.196001094E1,1.399999950E-2,-1.970000006E-2,8.999999845E-4
4.199001250E1,-3.469999880E-2,-2.819999866E-2,-1.850000024E-2
4.202001406E1,-4.399999976E-3,1.040000003E-2,2.060000040E-2
4.204998594E1,1.449999958E-2,9.099999443E-3,2.049999870E-2
4.207000781E1,2.279999852E-2,1.809999906E-2,1.059999969E-2
4.210000938E1,-4.389999807E-2,6.699999794E-3,6.999999750E-4
4.213001250E1,-4.499999806E-3,-2.249999903E-2,2.029999904E-2
4.216001406E1,5.499999970E-3,6.099999882E-3,2.029999904E-2
4.219001562E1,-1.379999984E-2,-3.799999831E-3,3.989999741E-2
4.221998594E1,2.349999920E-2,-3.099999949E-2,3.019999899E-2
4.224000938E1,3.700000001E-3,-1.099999994E-2,3.999999911E-2
4.227001094E1,-1.559999958E-2,-3.999999899E-4,-8.799999952E-3
4.230001250E1,-1.449999958E-2,-2.029999904E-2,1.019999944E-2
4.233001406E1,-1.339999959E-2,-1.189999934E-2,1.989999972E-2
4.235998594E1,5.899999756E-3,1.659999974E-2,2.960000001E-2
4.238000781E1,5.599999800E-3,-1.229999959E-2,2.960000001E-2
4.241000938E1,-4.399999976E-3,-1.229999959E-2,1.999999949E-4
4.244001250E1,-4.900000058E-3,-1.019999944E-2,1.999999955E-2
4.247001406E1,1.480000000E-2,9.699999355E-3,1.019999944E-2
4.249998438E1,1.349999942E-2,-8.999999613E-3,4.999999655E-4
4.252000625E1,3.499999875E-3,2.869999968E-2,2.979999967E-2
4.255000938E1,1.319999993E-2,-2.019999921E-2,1.989999972E-2
4.258001094E1,-2.410000004E-2,-8.999999845E-4,-1.919999905E-2
4.261001250E1,-3.499999875E-3,8.799999952E-3,2.979999967E-2
4.264001563E1,-3.199999919E-3,7.999999449E-3,2.999999851E-4
4.266998594E1,3.559999913E-2,-1.799999969E-3,1.009999961E-2
4.269000781E1,5.499999970E-3,2.709999867E-2,1.989999972E-2
4.272000938E1,4.199999850E-3,-2.119999938E-2,-9.399999864E-3
4.275001250E1,4.399999976E-3,-1.049999986E-2,3.999999899E-4
4.278001406E1,-4.499999806E-3,-6.199999712E-3,-5.999999703E-4
4.280998594E1,5.799999926E-3,2.219999954E-2,-6.999999750E-4
4.283000781E1,6.399999838E-3,3.009999916E-2,-7.999999798E-4
4.286000938E1,7.199999876E-3,9.099999443E-3,-4.999999702E-2
4.289001094E1,-3.130000085E-2,-2.889999934E-2,-2.049999870E-2
4.292001250E1,-2.039999887E-2,-6.289999932E-2,-3.959999979E-2
4.295001563E1,3.830000013E-2,3.439999744E-2,-3.959999979E-2
4.297998594E1,2.730000019E-2,5.879999697E-2,-8.999999845E-4
4.300000781E1,-1.899999916E-3,2.819999866E-2,-3.039999865E-2
4.303001094E1,-2.199999988E-3,-5.929999799E-2,-2.049999870E-2
4.306001094E1,-2.300000051E-3,-3.599999845E-2,-3.979999945E-2
4.309001406E1,-1.159999985E-2,3.099999856E-3,-2.999999933E-2
4.311998438E1,8.100000210E-3,3.009999916E-2,8.899999782E-3
4.314000625E1,7.799999788E-3,3.839999810E-2,-4.019999877E-2
4.317000938E1,-1.329999976E-2,-1.109999977E-2,-6.969999522E-2
4.320001094E1,-2.300000051E-3,-5.999999703E-4,-1.079999935E-2
4.323001250E1,-1.150000002E-2,1.819999889E-2,-1.079999935E-2
4.326001562E1,1.589999907E-2,3.590000048E-2,-1.099999994E-2
4.328998594E1,5.499999970E-3,1.549999975E-2,-1.979999989E-2
4.331000781E1,1.509999949E-2,-3.269999847E-2,-2.950000018E-2
4.334001094E1,-4.399999976E-3,-2.029999904E-2,-1.950000040E-2
4.337001250E1,-4.100000020E-3,6.999999750E-4,-1.939999871E-2
4.340001406E1,6.000000052E-3,1.019999944E-2,-9.599999525E-3
4.342998438E1,-3.499999875E-3,8.999999613E-3,1.970000006E-2
4.345000625E1,-1.229999959E-2,-9.999999311E-4,-1.950000040E-2
4.348000938E1,7.100000046E-3,-8.899999782E-3,-1.929999888E-2
4.351001094E1,1.569999941E-2,5.799999833E-2,-9.699999355E-3
4.354001250E1,2.429999970E-2,-1.899999916E-3,-4.899999872E-2
4.357001562E1,1.379999984E-2,-4.910000041E-2,9.899999946E-3
4.359998594E1,-5.599999800E-3,-7.299999706E-3,-1.919999905E-2
4.362000781E1,-5.299999844E-3,2.300000051E-3,-1.919999905E-2
4.365000938E1,5.099999718E-3,2.399999881E-3,-5.839999765E-2
4.368001250E1,5.099999718E-3,-6.399999838E-3,-3.869999945E-2
4.371001406E1,-3.499999875E-3,1.219999976E-2,-4.859999940E-2
4.373998438E1,7.400000002E-3,1.899999916E-3,-9.399999864E-3
4.376000781E1,-2.199999988E-3,1.899999916E-3,-2.899999917E-2
4.379000938E1,1.649999991E-2,-1.829999872E-2,1.809999906E-2
4.382001094E1,5.399999674E-3,-2.669999935E-2,-4.059999809E-2
4.385001406E1,-2.369999886E-2,-3.519999981E-2,-1.099999994E-2
4.388001406E1,-4.050000012E-2,4.999999888E-3,2.829999849E-2
4.390998594E1,-3.999999899E-4,4.270000011E-2,-2.080000006E-2
4.393000781E1,-1.199999941E-3,4.039999843E-2,-2.099999972E-2
4.396001094E1,3.590000048E-2,-1.399999950E-3,7.999999449E-3
4.399001250E1,2.449999936E-2,-3.070000000E-2,-2.129999921E-2
4.402001406E1,3.199999919E-3,-7.360000163E-2,-2.080000006E-2
4.404998594E1,-5.299999844E-3,5.399999674E-3,-1.090000011E-2
4.407000625E1,-4.600000102E-3,4.399999976E-3,-1.099999994E-2
4.410000938E1,-4.699999932E-3,2.149999887E-2,-1.399999950E-3
4.413001094E1,-3.469999880E-2,3.999999911E-2,-1.500000013E-3
4.416001406E1,4.100000020E-3,1.009999961E-2,1.789999940E-2
4.419001562E1,-5.399999674E-3,9.999999776E-3,-1.599999960E-3
4.421998594E1,-1.429999992E-2,9.999999311E-4,8.200000040E-3
4.424000781E1,4.999999888E-3,-8.299999870E-3,8.200000040E-3
4.427001094E1,4.299999680E-3,-1.769999973E-2,-1.399999950E-3
4.430001250E1,1.449999958E-2,-1.449999958E-2,-5.849999934E-2
4.433001406E1,-2.439999953E-2,2.449999936E-2,-2.899999917E-2
4.435998594E1,-2.269999869E-2,1.449999958E-2,-1.919999905E-2
4.438000625E1,-2.899999963E-3,2.329999954E-2,-1.929999888E-2
4.441000938E1,1.679999940E-2,1.269999985E-2,-2.919999883E-2
4.444001094E1,2.520000003E-2,2.129999921E-2,-4.889999703E-2
4.447001250E1,-3.899999894E-3,-7.499999832E-3,-9.699999355E-3
4.450001562E1,5.799999926E-3,-6.599999964E-3,-3.900000080E-2
4.452998594E1,1.499999966E-2,3.000000026E-3,9.999999747E-5
4.455000781E1,1.469999924E-2,1.269999985E-2,-2.919999883E-2
4.458001094E1,-3.899999894E-3,1.269999985E-2,-3.900000080E-2
4.461001250E1,-3.199999919E-3,2.899999963E-3,-2.919999883E-2
4.464001406E1,-2.119999938E-2,-6.399999838E-3,-1.929999888E-2
4.466998594E1,-1.999999862E-3,2.190000005E-2,-9.599999525E-3
4.469000781E1,7.400000002E-3,2.149999887E-2,-1.950000040E-2
4.472000938E1,1.699999906E-2,2.099999925E-3,-9.599999525E-3
4.475001250E1,-1.999999862E-3,-7.999999449E-3,-4.889999703E-2
4.478001406E1,8.200000040E-3,-3.539999947E-2,-3.000000026E-3
4.481001563E1,3.769999743E-2,3.469999880E-2,-2.799999900E-3
4.483998594E1,1.649999991E-2,6.059999764E-2,-3.199999919E-3
4.486000781E1,6.399999838E-3,2.989999950E-2,-3.299999982E-3
4.489001094E1,1.640000008E-2,-1.899999939E-2,-4.250000045E-2
4.492001250E1,6.899999920E-3,-1.659999974E-2,-3.099999856E-3
4.495001406E1,-2.139999904E-2,-3.500000015E-2,-4.219999909E-2
4.497998594E1,8.100000210E-3,2.419999987E-2,-1.269999985E-2
4.500000781E1,1.709999889E-2,3.260000050E-2,-2.269999869E-2
4.503000938E1,3.649999946E-2,3.179999813E-2,-4.239999875E-2
4.506001094E1,-2.799999900E-3,1.599999960E-3,-2.279999852E-2
4.509001406E1,7.100000046E-3,2.119999938E-2,1.630000025E-2
4.512001562E1,6.899999920E-3,1.500000013E-3,6.499999668E-3
4.514998594E1,-2.699999837E-3,1.129999943E-2,-1.299999934E-2
4.517000938E1,6.799999624E-3,-3.669999912E-2,-3.099999856E-3
4.520001094E1,1.559999958E-2,-2.489999868E-2,-1.279999968E-2
4.523001250E1,-3.299999982E-3,4.699999932E-3,-2.259999886E-2
4.526001406E1,-2.089999989E-2,2.279999852E-2,-2.259999886E-2
4.528998594E1,-2.499999944E-3,9.200000204E-3,4.600000102E-3
4.531000781E1,6.399999838E-3,8.399999700E-3,1.429999992E-2
4.534001094E1,5.899999756E-3,7.199999876E-3,3.379999846E-2
4.537001250E1,6.000000052E-3,-3.130000085E-2,4.399999976E-3
4.540001406E1,5.099999718E-3,-1.970000006E-2,-1.489999983E-2
4.542998438E1,1.469999924E-2,-1.929999888E-2,-5.099999718E-3
4.545000625E1,-4.600000102E-3,1.939999871E-2,-2.469999902E-2
4.548000938E1,1.409999933E-2,-2.999999851E-4,-1.499999966E-2
4.551001094E1,-1.459999941E-2,-1.099999994E-3,-1.499999966E-2
4.554001250E1,-1.370000001E-2,-1.059999969E-2,-2.479999885E-2
4.557001562E1,1.620000042E-2,-8.899999782E-3,-2.459999919E-2
4.559998594E1,-3.899999894E-3,1.030000020E-2,3.409999982E-2
4.562000781E1,-3.700000001E-3,9.899999946E-3,4.600000102E-3
4.565000938E1,1.509999949E-2,-9.699999355E-3,-1.489999983E-2
4.568001250E1,-3.999999724E-3,9.999999776E-3,-2.469999902E-2
4.571001406E1,-3.399999812E-3,-8.599999361E-3,4.699999932E-3
4.573998438E1,-4.949999973E-2,-2.489999868E-2,-4.600000102E-3
4.576000625E1,-4.999999655E-4,4.169999808E-2,1.469999924E-2
4.579000938E1,8.700000122E-3,4.659999907E-2,1.539999992E-2
4.582001094E1,1.769999973E-2,-4.179999977E-2,1.539999992E-2
4.585001250E1,3.570000082E-2,-4.989999905E-2,-3.999999724E-3
4.588001406E1,-3.999999724E-3,-3.709999844E-2,5.899999756E-3
4.590998594E1,-3.280000016E-2,3.219999745E-2,1.579999924E-2
4.593000781E1,7.299999706E-3,3.150000051E-2,2.559999935E-2
4.596000938E1,7.499999832E-3,9.599999525E-3,5.799999926E-3
4.599001250E1,-2.600000007E-3,7.899999619E-3,-3.350000083E-2
4.602001406E1,-2.699999837E-3,-2.399999881E-3,5.599999800E-3
4.604998438E1,5.399999674E-3,-2.190000005E-2,1.529999916E-2
4.607000625E1,-5.499999970E-3,1.630000025E-2,1.519999932E-2
4.610000938E1,3.399999812E-3,5.899999756E-3,-4.399999976E-3
4.613001094E1,-6.399999838E-3,-3.089999966E-2,3.500000015E-2
4.616001250E1,2.139999904E-2,-9.999999747E-5,-1.389999967E-2
4.619001562E1,-1.659999974E-2,-9.499999695E-3,-3.999999724E-3
4.621998594E1,3.099999856E-3,1.889999956E-2,2.520000003E-2
4.624000781E1,2.899999963E-3,1.809999906E-2,-4.199999850E-3
4.627001094E1,2.399999881E-3,-3.079999983E-2,5.499999970E-3
4.630001250E1,-6.799999624E-3,-1.979999989E-2,-2.060000040E-2
4.633001406E1,1.219999976E-2,-1.879999973E-2,8.700000122E-3
4.635998438E1,1.119999960E-2,-1.649999991E-2,8.899999782E-3
4.638000625E1,-7.999999449E-3,2.799999900E-3,2.850000001E-2
4.641000938E1,2.029999904E-2,1.150000002E-2,8.799999952E-3
4.644001094E1,-1.889999956E-2,2.829999849E-2,8.499999531E-3
4.647001250E1,-4.699999839E-2,2.789999917E-2,-3.059999831E-2
4.650001562E1,-6.300000008E-3,-8.999999845E-4,-1.090000011E-2
4.652998594E1,4.100000020E-3,-3.999999899E-4,8.700000122E-3
4.655000781E1,2.300000004E-2,-4.999999655E-4,2.829999849E-2
4.658001094E1,2.139999904E-2,-1.019999944E-2,3.810000047E-2
4.661001250E1,2.039999887E-2,9.699999355E-3,8.599999361E-3
4.664001406E1,-1.869999990E-2,-1.960000023E-2,8.599999361E-3
4.666998438E1,1.999999862E-3,-3.749999776E-2,-8.999999845E-4
4.669000625E1,1.899999916E-3,-7.400000002E-3,8.899999782E-3
4.672000938E1,2.099999925E-3,3.859999776E-2,2.819999866E-2
4.675001094E1,-2.599999867E-2,7.499999832E-3,1.829999872E-2
4.678001406E1,-1.339999959E-2,-2.809999883E-2,-2.899999963E-3
4.681001563E1,-2.339999937E-2,-1.740000024E-2,-3.219999745E-2
4.683998750E1,-1.200000010E-2,-5.599999800E-3,7.100000046E-3
4.686000781E1,1.649999991E-2,1.319999993E-2,2.669999935E-2
4.689001094E1,4.429999739E-2,4.160000011E-2,6.899999920E-3
4.692001250E1,-4.999999888E-3,-6.999999750E-3,-2.239999920E-2
4.695001406E1,4.900000058E-3,2.600000007E-3,-2.239999920E-2
4.697998438E1,-1.370000001E-2,1.189999934E-2,-2.239999920E-2
4.700000781E1,-1.310000010E-2,2.080000006E-2,-2.899999963E-3
4.703000938E1,-1.249999925E-2,1.199999941E-3,-2.249999903E-2
4.706001094E1,-2.799999900E-3,-1.669999957E-2,1.679999940E-2
4.709001406E1,-2.699999837E-3,-3.529999778E-2,-2.600000007E-3
4.712001562E1,-1.189999934E-2,4.699999932E-3,-2.499999944E-3
4.714998594E1,2.649999969E-2,2.369999886E-2,-2.600000007E-3
4.717000781E1,2.620000020E-2,1.289999951E-2,6.999999750E-3
4.720001094E1,-4.100000020E-3,2.399999881E-3,2.649999969E-2
4.723001250E1,-1.379999984E-2,-6.699999794E-3,3.639999777E-2
4.726001406E1,1.539999992E-2,2.149999887E-2,-2.799999900E-3
4.728998438E1,1.469999924E-2,-1.850000024E-2,-8.399999700E-3
4.731000781E1,4.600000102E-3,-2.799999900E-2,1.300000004E-3
4.734000938E1,4.199999850E-3,6.999999750E-4,1.199999941E-3
4.737001094E1,-1.420000009E-2,1.049999986E-2,-8.399999700E-3
4.740001406E1,-3.199999919E-3,5.999999703E-4,1.109999977E-2
4.743001562E1,-3.499999875E-3,-2.789999917E-2,1.399999950E-3
4.745998594E1,1.459999941E-2,-1.659999974E-2,2.109999955E-2
4.748000781E1,4.600000102E-3,2.699999837E-3,1.119999960E-2
4.751001094E1,2.349999920E-2,-2.630000003E-2,1.399999950E-3
4.754001250E1,1.209999993E-2,2.149999887E-2,1.300000004E-3
4.757001562E1,-3.689999878E-2,-2.620000020E-2,1.399999950E-3
4.759998594E1,-4.360000044E-2,-3.399999812E-2,5.069999769E-2
4.762000781E1,-2.300000004E-2,3.299999982E-2,3.099999949E-2
4.765000938E1,-3.199999919E-3,5.949999765E-2,1.300000004E-3
4.768001094E1,1.609999873E-2,1.740000024E-2,-8.700000122E-3
4.771001406E1,1.589999907E-2,-2.060000040E-2,-1.840000041E-2
4.774001563E1,-4.199999850E-3,-3.649999946E-2,1.129999943E-2
4.776998594E1,6.199999712E-3,2.600000007E-3,1.129999943E-2
4.779000938E1,1.599999890E-2,3.350000083E-2,2.399999881E-3
4.782001094E1,1.469999924E-2,5.009999871E-2,-6.639999896E-2
4.785001250E1,-1.480000000E-2,8.999999845E-4,-4.679999873E-2
4.788001406E1,1.420000009E-2,-1.809999906E-2,-7.499999832E-3
4.790998594E1,-4.699999932E-3,2.099999972E-2,-7.499999832E-3
4.793000781E1,-2.400000021E-2,9.999999311E-4,-7.599999662E-3
4.796000938E1,6.499999668E-3,-8.299999870E-3,-7.499999832E-3
4.799001094E1,1.519999932E-2,-7.799999788E-3,-3.689999878E-2
4.802001406E1,2.290000021E-2,-2.439999953E-2,-2.689999901E-2
4.805001562E1,-3.559999913E-2,-4.600000102E-3,-1.699999906E-2
4.807998594E1,-1.459999941E-2,2.259999886E-2,-7.400000002E-3
4.810000781E1,-2.329999954E-2,3.109999932E-2,-7.499999832E-3
4.813001094E1,-2.180000022E-2,-9.399999864E-3,-1.740000024E-2
4.816001250E1,-2.799999900E-3,-1.860000007E-2,-3.689999878E-2
4.819001406E1,1.689999923E-2,-9.099999443E-3,-3.700000048E-2
4.821998594E1,6.099999882E-3,-3.549999744E-2,-1.709999889E-2
4.824000781E1,1.519999932E-2,-5.799999926E-3,-1.709999889E-2
4.827000938E1,5.200000014E-3,3.399999812E-3,-2.699999884E-2
4.830001250E1,-4.100000020E-3,1.219999976E-2,-1.860000007E-2
4.833001406E1,7.100000046E-3,1.169999968E-2,-1.860000007E-2
4.835998438E1,6.099999882E-3,2.029999904E-2,-1.869999990E-2
4.838000625E1,-3.399999812E-3,-1.779999956E-2,-5.790000036E-2
4.841000938E1,7.299999706E-3,-2.769999951E-2,-8.799999952E-3
4.844001094E1,-1.229999959E-2,1.090000011E-2,1.069999952E-2
4.847001250E1,1.709999889E-2,-2.779999934E-2,-8.799999952E-3
4.850001562E1,6.300000008E-3,-6.899999920E-3,-1.850000024E-2
4.852998594E1,-1.349999942E-2,1.999999862E-3,-5.779999867E-2
4.855000781E1,-3.199999779E-2,-5.499999970E-2,-8.599999361E-3
4.858000938E1,-7.999999798E-4,-4.699999932E-3,2.089999989E-2
4.861001250E1,8.599999361E-3,6.149999797E-2,1.079999935E-2
4.864001406E1,-1.799999969E-3,0.000000000E0,-1.869999990E-2
4.866998438E1,1.730000041E-2,-4.669999704E-2,-2.829999849E-2
4.869000625E1,-2.499999944E-3,-5.389999971E-2,-4.769999906E-2
4.872000781E1,-1.799999969E-3,5.899999756E-3,-1.819999889E-2
4.875001094E1,1.869999990E-2,-4.999999888E-3,2.080000006E-2
4.878001250E1,4.470000044E-2,1.750000007E-2,2.600000007E-3
4.881001563E1,3.999999724E-3,-2.799999900E-3,2.399999881E-3
4.883998594E1,2.109999955E-2,-3.199999779E-2,3.179999813E-2
4.886000781E1,1.079999935E-2,6.599999964E-3,5.139999837E-2
4.889001094E1,7.999999798E-4,2.569999918E-2,2.190000005E-2
4.892001094E1,-8.200000040E-3,-2.349999920E-2,2.190000005E-2
4.895001406E1,-7.799999788E-3,-4.129999876E-2,5.150000006E-2
4.897998438E1,1.199999941E-3,-2.939999849E-2,2.219999954E-2
4.900000781E1,-8.100000210E-3,0.000000000E0,-7.100000046E-3
4.903000938E1,-7.299999706E-3,-2.009999938E-2,2.219999954E-2
4.906001094E1,1.189999934E-2,4.999999655E-4,3.209999949E-2
4.909001406E1,-7.799999788E-3,1.950000040E-2,4.189999774E-2
4.912001562E1,-1.740000024E-2,-1.999999949E-4,2.219999954E-2
4.914998594E1,2.249999903E-2,-2.889999934E-2,2.229999937E-2
4.917000781E1,2.279999852E-2,-1.829999872E-2,2.239999920E-2
4.920001094E1,3.199999919E-3,-7.699999958E-3,3.229999915E-2
4.923001094E1,3.899999894E-3,1.209999993E-2,3.229999915E-2
4.926001250E1,-1.549999975E-2,-1.659999974E-2,-6.699999794E-3
4.928998438E1,1.509999949E-2,-2.190000005E-2,-2.080000006E-2
4.931000625E1,-2.419999987E-2,-1.699999906E-3,-1.090000011E-2
4.934000938E1,-1.319999993E-2,8.100000210E-3,-1.090000011E-2
4.937001094E1,-2.799999900E-3,2.829999849E-2,-1.079999935E-2
4.940001406E1,-3.299999982E-3,2.589999884E-2,-1.099999994E-2
4.943001562E1,6.099999882E-3,6.499999668E-3,-2.080000006E-2
4.945998594E1,1.459999941E-2,2.410000004E-2,-2.109999955E-2
4.948000781E1,4.600000102E-3,-1.420000009E-2,-4.059999809E-2
4.951001094E1,3.999999724E-3,-5.150000006E-2,1.829999872E-2
4.954001250E1,2.799999900E-3,4.479999840E-2,2.789999917E-2
4.957001406E1,2.229999937E-2,6.069999933E-2,-1.150000002E-2
4.959998438E1,3.299999982E-3,-2.769999951E-2,-2.139999904E-2
4.962000781E1,3.199999919E-3,-5.449999869E-2,-4.069999978E-2
4.965000938E1,-2.630000003E-2,-4.799999762E-3,-3.089999966E-2
4.968001094E1,-2.520000003E-2,4.299999680E-3,-4.069999978E-2
4.971001250E1,3.899999894E-3,2.199999988E-2,-1.699999906E-3
4.974001406E1,5.049999803E-2,2.109999955E-2,-3.119999915E-2
4.976998594E1,-8.200000040E-3,1.090000011E-2,-3.130000085E-2
4.979000781E1,-1.840000041E-2,-1.129999943E-2,-2.999999851E-4
4.982001094E1,1.069999952E-2,8.100000210E-3,4.859999940E-2
4.985001250E1,-1.909999922E-2,6.799999624E-3,2.889999934E-2
4.988001406E1,-1.750000007E-2,-1.239999942E-2,-2.979999967E-2
4.990998594E1,-4.569999874E-2,-3.959999979E-2,-1.999999949E-4
4.993000625E1,-1.559999958E-2,-8.899999782E-3,9.699999355E-3
4.996000938E1,4.799999762E-3,2.049999870E-2,2.929999866E-2
4.999001094E1,-3.899999894E-3,1.919999905E-2,-9.999999747E-5
5.002001406E1,1.469999924E-2,-1.950000040E-2,9.599999525E-3
5.005001562E1,1.319999993E-2,3.999999899E-4,1.939999871E-2
5.007998594E1,3.099999856E-3,1.009999961E-2,-9.999999747E-5
5.010000781E1,-6.399999838E-3,9.599999525E-3,1.939999871E-2
5.013001094E1,-1.589999907E-2,1.040000003E-2,-1.970000006E-2
5.016001250E1,-5.599999800E-3,-1.779999956E-2,9.800000116E-3
5.019001406E1,4.299999680E-3,-8.499999531E-3,1.950000040E-2
5.021998594E1,-4.499999806E-3,1.999999949E-4,0.000000000E0
5.024000781E1,-4.299999680E-3,-2.789999917E-2,9.800000116E-3
5.027000938E1,-4.199999850E-3,-7.199999876E-3,3.929999843E-2
5.030001094E1,6.899999920E-3,1.589999907E-2,-2.109999955E-2
5.033001406E1,-2.699999837E-3,2.559999935E-2,-3.089999966E-2
5.036001562E1,1.589999907E-2,-1.289999951E-2,-3.089999966E-2
5.038998594E1,5.799999926E-3,-2.899999963E-3,-1.500000013E-3
5.041000781E1,1.449999958E-2,2.649999969E-2,-4.069999978E-2
5.044001094E1,-1.429999992E-2,-3.199999919E-3,-1.500000013E-3
5.047001250E1,-2.309999987E-2,-4.099999741E-2,8.399999700E-3
5.050001406E1,-3.099999856E-3,3.500000015E-2,-1.599999960E-3
5.052998594E1,-1.239999942E-2,4.329999909E-2,-1.699999906E-3
5.055000781E1,-1.229999959E-2,3.000000026E-3,-2.139999904E-2
5.058000938E1,2.499999851E-2,-2.499999851E-2,-4.089999944E-2
5.061001094E1,1.370000001E-2,-4.120000079E-2,-2.109999955E-2
5.064001406E1,-2.400000021E-2,2.999999851E-4,-4.039999843E-2
5.067001563E1,-3.700000001E-3,2.799999900E-2,-1.109999977E-2
5.069998594E1,1.489999983E-2,7.100000046E-3,-3.089999966E-2
5.072000938E1,-4.399999976E-3,2.559999935E-2,-3.099999949E-2
5.075001094E1,-1.480000000E-2,2.510000020E-2,-4.079999775E-2
5.078001250E1,-1.370000001E-2,3.109999932E-2,2.300000051E-3
5.081001406E1,-3.299999982E-3,1.999999862E-3,1.219999976E-2
5.083998594E1,5.799999926E-3,-2.630000003E-2,2.209999971E-2
5.086000781E1,-3.799999831E-3,-6.599999964E-3,4.169999808E-2
5.089000938E1,-4.100000020E-3,-6.300000008E-3,-1.699999906E-2
5.092001250E1,-3.700000001E-3,-1.469999924E-2,-1.689999923E-2
5.095001406E1,-2.600000007E-3,2.469999902E-2,-6.999999750E-3
5.098001562E1,-1.999999862E-3,3.240000084E-2,1.229999959E-2
5.100998594E1,-1.500000013E-3,-7.799999788E-3,3.179999813E-2
5.103000938E1,7.799999788E-3,1.109999977E-2,2.300000051E-3
5.106001094E1,7.100000046E-3,1.179999951E-2,-7.299999706E-3
5.109001250E1,6.399999838E-3,-8.200000040E-3,2.300000051E-3
5.112001406E1,-3.799999831E-3,-7.899999619E-3,2.300000051E-3
5.114998594E1,-1.299999934E-2,1.159999985E-2,2.199999988E-2
5.117000781E1,-2.269999869E-2,2.080000006E-2,4.149999842E-2
5.120000938E1,-1.260000002E-2,8.799999952E-3,-7.599999662E-3
5.123001094E1,-1.159999985E-2,-1.860000007E-2,-2.699999884E-2
5.126001406E1,1.699999906E-2,-7.599999662E-3,1.219999976E-2
5.128998438E1,7.199999876E-3,2.499999944E-3,-2.809999883E-2
5.131000625E1,-3.299999982E-3,2.119999938E-2,-2.819999866E-2
5.134000938E1,5.899999756E-3,1.059999969E-2,-1.850000024E-2
5.137001094E1,6.999999750E-3,3.999999899E-4,-1.850000024E-2
5.140001250E1,-3.299999982E-3,-8.100000210E-3,-8.599999361E-3
5.143001406E1,6.099999882E-3,-1.740000024E-2,-2.809999883E-2
5.145998594E1,4.799999762E-3,-2.589999884E-2,-2.809999883E-2
5.148000781E1,-1.409999933E-2,-1.549999975E-2,1.109999977E-2
5.151000938E1,1.539999992E-2,3.370000049E-2,1.399999950E-3
5.154001250E1,5.099999718E-3,3.979999945E-2,1.079999935E-2
5.157001406E1,-1.499999966E-2,1.500000013E-3,-8.599999361E-3
5.159998438E1,-1.449999958E-2,-2.569999918E-2,-8.399999700E-3
5.162000625E1,-4.399999976E-3,-5.699999630E-3,-2.799999900E-2
5.165000938E1,-2.209999971E-2,1.409999933E-2,-8.299999870E-3
5.168001094E1,1.669999957E-2,1.409999933E-2,1.119999960E-2
5.171001250E1,4.419999942E-2,2.290000021E-2,-2.809999883E-2
5.174001406E1,3.139999881E-2,-5.799999926E-3,1.199999941E-3
5.176998594E1,2.070000023E-2,4.699999932E-3,-8.399999700E-3
5.179000781E1,1.199999941E-3,3.329999745E-2,-3.619999811E-2
5.182001094E1,-4.509999976E-2,1.209999993E-2,-4.609999806E-2
5.185001094E1,-6.179999933E-2,1.299999934E-2,-3.610000014E-2
5.188001406E1,-2.919999883E-2,-2.469999902E-2,3.199999919E-3
5.190998438E1,-9.599999525E-3,-1.459999941E-2,-3.590000048E-2
5.193000625E1,2.019999921E-2,5.299999844E-3,-5.549999699E-2
5.196000938E1,1.809999906E-2,2.429999970E-2,-3.599999845E-2
5.199001094E1,3.610000014E-2,5.799999926E-3,3.199999919E-3
5.202001250E1,2.449999936E-2,1.579999924E-2,-2.609999850E-2
5.205001562E1,-5.399999674E-3,-3.799999831E-3,-3.599999845E-2
5.207998594E1,3.899999894E-3,-2.269999869E-2,2.279999852E-2
5.210000781E1,-5.499999970E-3,6.300000008E-3,3.199999919E-3
5.213001094E1,-1.509999949E-2,1.509999949E-2,-2.620000020E-2
5.216001250E1,-3.119999915E-2,-4.499999806E-3,-4.569999874E-2
5.219001406E1,-2.039999887E-2,5.099999718E-3,-2.609999850E-2
5.221998594E1,0.000000000E0,-1.349999942E-2,-6.399999838E-3
5.224000781E1,9.399999864E-3,-1.279999968E-2,-2.589999884E-2
5.227000938E1,-6.999999750E-4,-1.219999976E-2,-1.609999873E-2
5.230001094E1,1.789999940E-2,7.699999958E-3,7.999999798E-4
5.233001406E1,7.699999958E-3,6.499999668E-3,-3.839999810E-2
5.236001562E1,-2.099999925E-3,-3.099999856E-3,-2.859999985E-2
5.238998594E1,1.750000007E-2,2.649999969E-2,-1.869999990E-2
5.241000781E1,6.999999750E-3,2.630000003E-2,-8.999999613E-3
5.244001094E1,-2.029999904E-2,-2.199999988E-2,-3.830000013E-2
5.247001250E1,-2.969999984E-2,-1.040000003E-2,-1.850000024E-2
5.250001406E1,4.999999655E-4,6.390000135E-2,-2.859999985E-2
5.252998438E1,-9.599999525E-3,3.179999813E-2,-1.909999922E-2
5.255000781E1,-9.599999525E-3,-4.609999806E-2,-3.869999945E-2
5.258000938E1,8.700000122E-3,-1.389999967E-2,-2.859999985E-2
5.261001094E1,8.299999870E-3,5.899999756E-3,-1.879999973E-2
5.264001406E1,-3.999999899E-4,1.449999958E-2,-2.869999968E-2
5.267001563E1,9.399999864E-3,3.700000001E-3,-2.879999951E-2
5.269998594E1,1.879999973E-2,1.219999976E-2,-2.889999934E-2
5.272000781E1,8.700000122E-3,1.179999951E-2,-2.899999917E-2
5.275001094E1,9.599999525E-3,2.119999938E-2,-9.399999864E-3
5.278001250E1,-2.919999883E-2,2.569999918E-2,1.399999950E-3
5.281001406E1,-2.999999851E-4,-1.279999968E-2,2.109999955E-2
5.283998594E1,9.399999864E-3,-4.869999737E-2,5.079999939E-2
5.286000781E1,1.829999872E-2,-1.860000007E-2,3.119999915E-2
5.289000938E1,-1.139999926E-2,1.109999977E-2,-1.769999973E-2
5.292001094E1,-1.899999916E-3,-1.750000007E-2,1.169999968E-2
5.295001250E1,-1.079999935E-2,2.139999904E-2,3.130000085E-2
5.298001562E1,8.700000122E-3,1.079999935E-2,4.099999741E-2
5.300998594E1,-1.159999985E-2,1.960000023E-2,3.109999932E-2
5.303000781E1,-2.099999972E-2,2.999999851E-4,-7.999999449E-3
5.306001094E1,1.740000024E-2,1.970000006E-2,1.150000002E-2
5.309001250E1,-2.159999870E-2,-9.999999776E-3,-8.100000210E-3
5.312001406E1,-1.129999943E-2,-1.869999990E-2,5.079999939E-2
5.314998594E1,1.809999906E-2,-1.759999990E-2,3.130000085E-2
5.317000781E1,-2.699999837E-3,1.599999960E-3,5.079999939E-2
5.320000938E1,-3.299999982E-3,2.909999900E-2,-8.100000210E-3
5.323001094E1,-1.299999934E-2,9.099999443E-3,1.139999926E-2
5.326001406E1,-1.229999959E-2,-9.999999776E-3,3.109999932E-2
5.329001562E1,-3.179999813E-2,-9.800000116E-3,4.889999703E-2
5.331998594E1,-2.199999988E-3,-2.789999917E-2,2.939999849E-2
5.334000938E1,1.649999991E-2,1.049999986E-2,4.899999872E-2
5.337001094E1,-3.299999982E-3,9.599999525E-3,-9.899999946E-3
5.340001250E1,-2.989999950E-2,-4.569999874E-2,-9.499999695E-3
5.343001406E1,2.879999951E-2,-1.569999941E-2,1.009999961E-2
5.345998438E1,1.699999906E-2,5.889999866E-2,9.699999355E-3
5.348000781E1,1.620000042E-2,4.679999873E-2,4.869999737E-2
5.351000938E1,-2.799999900E-3,-3.139999881E-2,-9.999999776E-3
5.354001094E1,-1.229999959E-2,-4.749999940E-2,0.000000000E0
5.357001406E1,-1.090000011E-2,-7.799999788E-3,-1.939999871E-2
5.360001563E1,-1.850000024E-2,1.099999994E-2,9.899999946E-3
5.362998594E1,1.030000020E-2,1.950000040E-2,9.800000116E-3
5.365000938E1,2.859999985E-2,8.799999952E-3,1.950000040E-2
5.368001094E1,8.200000040E-3,-8.999999845E-4,1.939999871E-2
5.371001250E1,1.759999990E-2,-8.999999845E-4,-9.999999747E-5
5.374001406E1,-2.199999988E-3,9.200000204E-3,2.929999866E-2
5.376998594E1,-1.279999968E-2,5.509999767E-2,-3.999999899E-4
5.379000781E1,-2.899999963E-3,-1.359999925E-2,-3.590000048E-2
5.382000938E1,6.699999794E-3,-5.889999866E-2,2.319999970E-2
5.385001094E1,-4.089999944E-2,-9.599999525E-3,1.339999959E-2
5.388001406E1,-2.759999968E-2,9.099999443E-3,-6.099999882E-3
5.391001563E1,-1.869999990E-2,-1.040000003E-2,-1.589999907E-2
5.393998594E1,1.099999994E-3,-1.889999956E-2,1.349999942E-2
5.396000781E1,-8.200000040E-3,-1.809999906E-2,1.359999925E-2
5.399001094E1,3.039999865E-2,1.200000010E-2,1.370000001E-2
5.402001250E1,9.399999864E-3,6.999999750E-4,-1.579999924E-2
5.405001406E1,9.499999695E-3,0.000000000E0,3.599999938E-3
5.407998594E1,9.099999443E-3,-8.999999613E-3,-6.000000052E-3
5.410000781E1,-1.939999871E-2,9.999999776E-3,3.700000001E-3
5.413000938E1,-3.810000047E-2,2.999999851E-4,3.700000001E-3
5.416001094E1,2.199999988E-3,-2.730000019E-2,3.899999894E-3
5.419001406E1,-1.659999974E-2,-1.679999940E-2,1.379999984E-2
5.421998438E1,3.029999882E-2,2.029999904E-2,1.349999942E-2
5.424000625E1,1.030000020E-2,2.879999951E-2,3.599999938E-3
5.427000938E1,-2.999999851E-4,-4.999999655E-4,1.339999959E-2
5.430001094E1,-3.720000014E-2,-1.539999992E-2,-1.289999951E-2
5.433001250E1,-6.999999750E-3,2.319999970E-2,-5.219999701E-2
5.436001406E1,-4.600000102E-3,4.800000042E-2,-4.270000011E-2
5.438998594E1,1.429999992E-2,-1.999999862E-3,-2.319999970E-2
5.441000781E1,2.309999987E-2,-2.049999870E-2,-4.270000011E-2
5.444001094E1,2.070000023E-2,-2.749999985E-2,-2.290000021E-2
5.447001094E1,-2.819999866E-2,2.269999869E-2,-2.279999852E-2
5.450001406E1,-8.299999870E-3,2.499999944E-3,-2.290000021E-2
5.452998438E1,1.500000013E-3,4.099999741E-2,-5.240000039E-2
5.455000625E1,2.109999955E-2,5.999999703E-4,-2.300000004E-2
5.458000938E1,2.009999938E-2,1.850000024E-2,6.099999882E-3
5.461001094E1,1.069999952E-2,-8.999999845E-4,-1.339999959E-2
5.464001250E1,-7.999999449E-3,2.749999985E-2,-4.289999977E-2
5.467001563E1,3.070000000E-2,6.799999624E-3,2.559999935E-2
5.469998594E1,1.009999961E-2,-7.699999958E-2,1.609999873E-2
5.472000781E1,-8.899999782E-3,-4.529999942E-2,-5.219999701E-2
5.475000938E1,-1.869999990E-2,-5.699999630E-3,-1.207999960E-1
5.478001250E1,-3.529999778E-2,7.799999788E-3,-2.999999851E-4
5.481001406E1,-3.419999778E-2,-1.139999926E-2,9.779999405E-2
5.483998594E1,-4.999999888E-3,7.599999662E-3,6.830000132E-2
5.486000625E1,3.260000050E-2,-1.899999916E-3,-1.989999972E-2
5.489000938E1,1.249999925E-2,-3.109999932E-2,-2.969999984E-2
5.492001094E1,3.009999916E-2,-2.869999968E-2,4.879999906E-2
5.495001250E1,3.849999979E-2,1.099999994E-2,2.919999883E-2
5.498001562E1,-1.079999935E-2,1.899999939E-2,1.929999888E-2
5.500998594E1,-2.989999950E-2,3.680000082E-2,4.849999771E-2
5.503000781E1,-4.829999804E-2,-2.399999881E-3,4.849999771E-2
5.506001094E1,-7.899999619E-3,-2.300000051E-3,-2.999999851E-4
5.509001250E1,1.059999969E-2,-4.099999741E-2,-1.009999961E-2
5.512001406E1,2.879999951E-2,-9.999999776E-3,2.909999900E-2
5.514998438E1,8.399999700E-3,9.999999747E-5,3.889999911E-2
5.517000781E1,1.819999889E-2,-9.399999864E-3,3.889999911E-2
5.520000938E1,-1.109999977E-2,4.649999738E-2,2.889999934E-2
5.523001094E1,-3.099999949E-2,3.429999948E-2,8.999999613E-3
5.526001250E1,-3.769999743E-2,-1.459999941E-2,-1.040000003E-2
5.529001562E1,-3.610000014E-2,-2.300000004E-2,2.889999934E-2
5.531998594E1,-3.269999847E-2,-2.129999921E-2,3.900000080E-2
5.534000781E1,7.100000046E-3,-7.599999662E-3,-3.999999899E-4
5.537001094E1,5.460000038E-2,2.099999925E-3,-4.999999655E-4
5.540001250E1,6.790000200E-2,1.109999977E-2,-2.029999904E-2
5.543001406E1,1.669999957E-2,1.069999952E-2,-2.039999887E-2
5.545998438E1,1.579999924E-2,9.899999946E-3,8.799999952E-3
5.548000625E1,-1.299999934E-2,1.889999956E-2,-1.079999935E-2
5.551000938E1,-3.109999932E-2,1.809999906E-2,8.700000122E-3
5.554001094E1,-1.909999922E-2,-2.979999967E-2,8.899999782E-3
5.557001406E1,-2.799999900E-2,-2.840000018E-2,-2.029999904E-2
5.560001563E1,-7.199999876E-3,-7.699999958E-3,-3.979999945E-2
5.562998594E1,-6.399999838E-3,-7.699999958E-3,-2.999999933E-2
5.565000781E1,1.339999959E-2,3.139999881E-2,-2.019999921E-2
5.568001094E1,1.099999994E-2,1.079999935E-2,8.999999613E-3
5.571001250E1,-8.999999613E-3,-2.799999900E-2,8.999999613E-3
5.574001406E1,1.939999871E-2,-2.589999884E-2,-1.030000020E-2
5.576998438E1,8.399999700E-3,-1.519999932E-2,-2.989999950E-2
5.579000781E1,7.599999662E-3,-2.459999919E-2,-2.009999938E-2
5.582000938E1,-2.099999972E-2,-1.339999959E-2,-1.009999961E-2
5.585001250E1,-2.099999972E-2,2.279999852E-2,1.699999906E-3
5.588001250E1,-2.859999985E-2,-1.649999991E-2,1.150000002E-2
5.591001563E1,-3.669999912E-2,-5.899999756E-3,-2.749999985E-2
5.593998594E1,-6.300000008E-3,-1.480000000E-2,-7.799999788E-3
5.596000781E1,5.020000041E-2,-1.409999933E-2,-7.799999788E-3
5.599001094E1,7.739999890E-2,-3.599999938E-3,2.159999870E-2
5.602001250E1,4.219999909E-2,3.390000015E-2,2.129999921E-2
