"Time (s)","Gyroscope x (rad/s)","Gyroscope y (rad/s)","Gyroscope z (rad/s)"
1.600187500E-1,-8.552113548E-3,-8.796459436E-2,-4.886921868E-2
1.850140630E-1,-8.552113548E-3,-8.796459436E-2,-4.886921868E-2
2.100109380E-1,3.665191308E-2,-2.748893499E-1,-1.710422710E-2
2.350078130E-1,4.886921868E-2,-2.333505154E-1,-3.787364438E-2
2.600031250E-1,2.076941729E-2,-2.345722467E-1,-2.809980139E-2
2.850000000E-1,3.787364438E-2,-1.930334121E-1,7.330382708E-3
3.099968750E-1,5.375614017E-2,-1.136209369E-1,9.773843922E-3
3.349937500E-1,3.176499158E-2,-2.321287990E-2,-9.773843922E-3
3.550156250E-1,1.588249579E-2,2.076941729E-2,-4.886921961E-3
3.800437500E-1,-8.552113548E-3,3.665191308E-2,6.108652335E-3
4.050093750E-1,3.176499158E-2,6.841690838E-2,2.321287990E-2
4.300062500E-1,1.270599663E-1,5.009094998E-2,1.832595654E-2
4.550015630E-1,2.235766798E-1,-6.841690838E-2,1.588249579E-2
4.800015630E-1,2.321287841E-1,-9.651670605E-2,1.710422710E-2
5.049937500E-1,1.710422635E-1,-4.276056588E-2,3.054326214E-2
5.250171880E-1,5.986479297E-2,3.176499158E-2,4.886921961E-3
5.500140630E-1,-5.375614017E-2,8.918632567E-2,-2.076941729E-2
5.750093750E-1,-1.197295859E-1,8.674286306E-2,-7.330382708E-3
6.000062500E-1,-1.661553383E-1,8.307766914E-2,8.552113548E-3
6.250015630E-1,-1.014036313E-1,8.307766914E-2,2.076941729E-2
6.500000000E-1,-7.330382708E-3,1.148426607E-1,4.031710699E-2
6.749953130E-1,3.543018550E-2,1.392772794E-1,4.398229718E-2
6.950171880E-1,4.886921868E-2,1.319468915E-1,3.543018550E-2
7.200140630E-1,5.864306167E-2,7.941248268E-2,2.321287990E-2
7.450109380E-1,4.031710699E-2,3.054326214E-2,-9.773843922E-3
7.700078130E-1,1.954768784E-2,3.543018550E-2,-3.665191308E-2
7.950031250E-1,3.665191354E-3,4.398229718E-2,-4.520402849E-2
8.200000000E-1,-1.099557430E-2,3.054326214E-2,-4.153883457E-2
8.449968750E-1,-2.076941729E-2,-1.588249579E-2,-1.710422710E-2
8.650187500E-1,-1.832595654E-2,-4.276056588E-2,-8.552113548E-3
8.900156250E-1,-7.330382708E-3,-4.764748737E-2,3.665191354E-3
9.150125000E-1,1.099557430E-2,-5.009094998E-2,1.710422710E-2
9.400078130E-1,1.343903504E-2,-5.009094998E-2,9.773843922E-3
9.650046880E-1,0.000000000E0,-5.009094998E-2,-2.443460980E-3
9.900015630E-1,-9.773843922E-3,-3.909537569E-2,1.221730490E-3
1.014996875E0,-7.330382708E-3,-4.153883457E-2,-2.443460980E-3
1.039995313E0,9.773843922E-3,-1.466076542E-2,-1.221730490E-3
1.060017188E0,1.710422710E-2,3.665191354E-3,1.221730490E-3
1.085012500E0,1.954768784E-2,-4.886921961E-3,4.886921961E-3
1.110018750E0,1.343903504E-2,1.221730467E-2,1.954768784E-2
1.135006250E0,-1.099557430E-2,-9.773843922E-3,2.687807009E-2
1.160003125E0,-2.565634064E-2,-1.954768784E-2,1.099557430E-2
1.184998438E0,-4.642575979E-2,-6.108652335E-3,-9.773843922E-3
1.209995313E0,-5.497787148E-2,6.108652335E-3,-1.221730467E-2
1.230017188E0,-5.619960278E-2,-2.443460980E-3,1.221730490E-3
1.255014063E0,-6.108652428E-2,-2.443460980E-3,1.588249579E-2
1.280010938E0,-7.330382615E-2,-2.809980139E-2,1.954768784E-2
1.305006250E0,-6.475171447E-2,-6.352998316E-2,2.443460934E-2
1.330003125E0,-5.497787148E-2,-8.063421398E-2,1.832595654E-2
1.355000000E0,-4.520402849E-2,-9.407324344E-2,1.710422710E-2
1.379995313E0,-3.420845419E-2,-1.123992056E-1,9.773843922E-3
1.400018750E0,-2.076941729E-2,-1.038470864E-1,7.330382708E-3
1.425015625E0,-1.832595654E-2,-9.162978828E-2,1.099557430E-2
1.450012500E0,-1.710422710E-2,-9.529497474E-2,1.343903504E-2
1.475006250E0,-1.710422710E-2,-7.574728876E-2,1.343903504E-2
1.500004688E0,-3.543018550E-2,-3.420845419E-2,1.588249579E-2
1.525000000E0,-6.597344577E-2,-8.552113548E-3,1.466076542E-2
1.549998438E0,-7.941248268E-2,-1.832595654E-2,1.099557430E-2
1.574993750E0,-7.086037099E-2,-3.054326214E-2,2.443460980E-3
1.595015625E0,-5.864306167E-2,-1.588249579E-2,-3.665191354E-3
1.620012500E0,-3.665191308E-2,1.832595654E-2,-1.221730490E-3
1.645009375E0,-2.443460980E-3,8.307766914E-2,-1.221730467E-2
1.670006250E0,3.420845419E-2,1.466076523E-1,-9.773843922E-3
1.695001563E0,6.841690838E-2,1.783726513E-1,4.886921961E-3
1.719998438E0,7.941248268E-2,1.844813079E-1,1.954768784E-2
1.744995313E0,7.696902007E-2,1.539380401E-1,2.565634064E-2
1.765017188E0,6.230825558E-2,1.050688177E-1,2.687807009E-2
1.790014063E0,3.787364438E-2,6.841690838E-2,1.588249579E-2
1.815009375E0,7.330382708E-3,3.420845419E-2,7.330382708E-3
1.840007813E0,-1.710422710E-2,-4.886921961E-3,2.443460980E-3
1.865003125E0,-3.665191308E-2,-5.742133036E-2,2.443460980E-3
1.890000000E0,-4.520402849E-2,-7.696902007E-2,4.886921961E-3
1.914995313E0,-4.398229718E-2,-7.941248268E-2,4.886921961E-3
1.935018750E0,-3.665191308E-2,-6.963863969E-2,7.330382708E-3
1.960015625E0,-1.343903504E-2,-2.443460934E-2,1.343903504E-2
1.985010938E0,7.330382708E-3,1.954768784E-2,1.343903504E-2
2.010007813E0,6.108652335E-3,3.298672289E-2,9.773843922E-3
2.035003125E0,2.443460980E-3,2.565634064E-2,9.773843922E-3
2.060000000E0,1.221730490E-3,1.099557430E-2,6.108652335E-3
2.084996875E0,1.221730490E-3,2.321287990E-2,1.221730490E-3
2.109993750E0,3.665191354E-3,5.131268129E-2,3.665191354E-3
2.130015625E0,2.443460980E-3,6.597344577E-2,1.466076542E-2
2.155012500E0,7.330382708E-3,6.230825558E-2,3.176499158E-2
2.180009375E0,2.076941729E-2,4.886921868E-2,4.642575979E-2
2.205004688E0,5.497787148E-2,5.253440887E-2,3.909537569E-2
2.230001563E0,4.031710699E-2,5.497787148E-2,1.588249579E-2
2.254998438E0,2.321287990E-2,-1.954768784E-2,-1.221730467E-2
2.279995313E0,2.199114859E-2,-9.407324344E-2,-2.565634064E-2
2.300017188E0,1.832595654E-2,-1.136209369E-1,-2.199114859E-2
2.325012500E0,1.710422710E-2,-1.282816976E-1,-1.954768784E-2
2.350010938E0,1.954768784E-2,-1.380555481E-1,-1.343903504E-2
2.375009375E0,-1.221730490E-3,-9.040805697E-2,-2.443460980E-3
2.400003125E0,-1.221730467E-2,-4.520402849E-2,6.108652335E-3
2.425000000E0,-2.809980139E-2,-2.687807009E-2,2.321287990E-2
2.449995313E0,-2.565634064E-2,-4.886921868E-2,3.787364438E-2
2.470017188E0,-2.932153083E-2,-9.407324344E-2,4.276056588E-2
2.495014063E0,-2.809980139E-2,-1.747074574E-1,9.773843922E-3
2.520012500E0,-4.031710699E-2,-2.406809032E-1,-2.565634064E-2
2.545007813E0,-6.475171447E-2,-2.944370508E-1,-4.276056588E-2
2.570004688E0,-6.230825558E-2,-2.724458873E-1,-3.665191308E-2
2.595000000E0,-3.665191308E-2,-2.101376355E-1,-1.832595654E-2
2.619996875E0,2.443460980E-3,-1.527163088E-1,-2.443460980E-3
2.640018750E0,1.710422710E-2,-1.185078546E-1,3.665191354E-3
2.665015625E0,1.588249579E-2,-9.162978828E-2,3.665191354E-3
2.690012500E0,1.710422710E-2,-8.307766914E-2,1.954768784E-2
2.715007813E0,-1.221730467E-2,-1.331686229E-1,3.054326214E-2
2.740006250E0,-4.886921868E-2,-2.211332172E-1,3.176499158E-2
2.765001563E0,-5.253440887E-2,-3.384193480E-1,8.552113548E-3
2.789998438E0,-4.642575979E-2,-4.361577928E-1,-1.954768784E-2
2.814993750E0,-3.665191308E-2,-5.241223574E-1,-5.742133036E-2
2.835015625E0,-1.710422710E-2,-5.119050741E-1,-7.819075137E-2
2.860014063E0,0.000000000E0,-4.532620013E-1,-6.963863969E-2
2.880025000E0,-2.443460980E-3,-3.909537494E-1,-3.420845419E-2
2.905000000E0,-1.588249579E-2,-3.335324228E-1,1.221730467E-2
2.929996875E0,-3.054326214E-2,-2.638937831E-1,4.642575979E-2
2.954993750E0,-2.565634064E-2,-1.918116808E-1,4.642575979E-2
2.975015625E0,-3.176499158E-2,-1.624901593E-1,4.642575979E-2
3.000012500E0,-4.764748737E-2,-1.734857261E-1,3.787364438E-2
3.025007813E0,-5.253440887E-2,-2.125810981E-1,3.176499158E-2
3.050006250E0,-5.497787148E-2,-2.028072625E-1,-8.552113548E-3
3.075001563E0,-8.429940045E-2,-1.368338168E-1,-3.665191308E-2
3.099998438E0,-8.796459436E-2,-8.185594529E-2,-3.909537569E-2
3.124993750E0,-3.543018550E-2,-2.687807009E-2,-7.330382708E-3
3.145017188E0,2.443460980E-3,0.000000000E0,3.054326214E-2
3.170014063E0,2.687807009E-2,7.330382708E-3,4.642575979E-2
3.195009375E0,4.153883457E-2,2.199114859E-2,2.565634064E-2
3.220006250E0,2.199114859E-2,5.497787148E-2,-3.665191354E-3
3.245001563E0,-2.687807009E-2,6.841690838E-2,-1.832595654E-2
3.270000000E0,-4.886921868E-2,8.063421398E-2,-1.343903504E-2
3.294995313E0,-4.520402849E-2,1.209513173E-1,1.221730490E-3
3.315017188E0,-2.932153083E-2,1.832595766E-1,2.443460980E-3
3.340014063E0,-1.710422710E-2,2.663372457E-1,7.330382708E-3
3.365010938E0,1.710422710E-2,3.995058537E-1,3.298672289E-2
3.390007813E0,2.565634064E-2,4.166100919E-1,3.543018550E-2
3.415003125E0,2.687807009E-2,4.349360466E-1,4.031710699E-2
3.440000000E0,1.099557430E-2,4.300491214E-1,3.054326214E-2
3.460028125E0,-6.108652335E-3,4.080579877E-1,1.588249579E-2
3.485018750E0,-3.298672289E-2,3.176499307E-1,-2.443460980E-3
3.510015625E0,-6.597344577E-2,2.052507252E-1,-9.773843922E-3
3.535010938E0,-8.185594529E-2,1.356120855E-1,4.886921961E-3
3.560009375E0,-6.230825558E-2,1.319468915E-1,2.199114859E-2
3.585003125E0,-4.520402849E-2,1.673770696E-1,2.443460934E-2
3.610001563E0,-3.543018550E-2,1.991420686E-1,9.773843922E-3
3.634996875E0,-7.330382708E-3,2.199114859E-1,-1.343903504E-2
3.659995313E0,2.321287990E-2,2.467895597E-1,-8.552113548E-3
3.680017188E0,2.809980139E-2,2.480112910E-1,-1.221730490E-3
3.705012500E0,6.108652335E-3,2.284636050E-1,7.330382708E-3
3.730009375E0,-2.443460980E-3,2.162462920E-1,1.466076542E-2
3.755006250E0,1.343903504E-2,2.003637999E-1,1.221730467E-2
3.780003125E0,1.099557430E-2,1.661553383E-1,8.552113548E-3
3.804998438E0,3.665191354E-3,1.588249654E-1,-6.108652335E-3
3.829995313E0,4.886921961E-3,1.710422635E-1,-1.221730467E-2
3.850017188E0,-3.665191354E-3,1.685988009E-1,-1.588249579E-2
3.875014063E0,2.443460980E-3,1.514945775E-1,-1.832595654E-2
3.900010938E0,1.099557430E-2,1.319468915E-1,-9.773843922E-3
3.925006250E0,9.773843922E-3,9.651670605E-2,4.886921961E-3
3.950003125E0,1.099557430E-2,5.864306167E-2,-1.221730490E-3
3.975000000E0,2.076941729E-2,1.954768784E-2,-9.773843922E-3
3.999996875E0,1.466076542E-2,9.773843922E-3,-1.221730467E-2
4.020018750E0,1.099557430E-2,0.000000000E0,-1.099557430E-2
4.045015625E0,-2.443460980E-3,-1.588249579E-2,-1.343903504E-2
4.070010938E0,-2.199114859E-2,-2.076941729E-2,-9.773843922E-3
4.095007813E0,-3.665191308E-2,-3.298672289E-2,-3.665191354E-3
4.120004688E0,-3.787364438E-2,-4.520402849E-2,-2.443460980E-3
4.145000000E0,-2.809980139E-2,-4.153883457E-2,1.221730490E-3
4.169998438E0,-2.443460980E-3,-2.932153083E-2,-3.665191354E-3
4.194993750E0,2.809980139E-2,-1.588249579E-2,-7.330382708E-3
4.215015625E0,5.131268129E-2,-1.588249579E-2,-4.886921961E-3
4.240012500E0,8.918632567E-2,1.954768784E-2,-9.773843922E-3
4.265009375E0,1.087340117E-1,5.986479297E-2,-9.773843922E-3
4.290006250E0,9.285151958E-2,6.963863969E-2,-1.221730490E-3
4.315001563E0,7.696902007E-2,7.941248268E-2,7.330382708E-3
4.339998438E0,6.719517708E-2,7.574728876E-2,6.108652335E-3
4.364995313E0,1.832595654E-2,1.466076542E-2,-1.466076542E-2
4.385015625E0,4.886921961E-3,-3.665191354E-3,-2.076941729E-2
4.410014063E0,4.886921961E-3,-2.687807009E-2,-2.443460934E-2
4.435009375E0,1.221730467E-2,-1.832595654E-2,-1.954768784E-2
4.460006250E0,-1.588249579E-2,-4.886921961E-3,-8.552113548E-3
4.485003125E0,-3.543018550E-2,2.687807009E-2,9.773843922E-3
4.510000000E0,-3.665191308E-2,6.230825558E-2,2.443460980E-3
4.534995313E0,-1.221730467E-2,6.230825558E-2,1.710422710E-2
4.555018750E0,1.466076542E-2,4.764748737E-2,1.588249579E-2
4.580015625E0,4.398229718E-2,5.497787148E-2,-2.443460980E-3
4.605010938E0,3.909537569E-2,5.864306167E-2,-4.886921961E-3
4.630006250E0,3.543018550E-2,2.076941729E-2,1.221730490E-3
4.655003125E0,4.520402849E-2,-2.321287990E-2,-2.443460980E-3
4.680000000E0,5.009094998E-2,-3.176499158E-2,-2.443460980E-3
4.704996875E0,4.764748737E-2,-2.443460934E-2,1.221730490E-3
4.729993750E0,4.031710699E-2,-2.932153083E-2,7.330382708E-3
4.750015625E0,3.543018550E-2,-4.520402849E-2,6.108652335E-3
4.775012500E0,4.642575979E-2,-4.886921868E-2,-1.221730490E-3
4.800009375E0,2.565634064E-2,-6.108652428E-2,-3.665191354E-3
4.825004688E0,-3.176499158E-2,-8.185594529E-2,-9.773843922E-3
4.850001563E0,-5.619960278E-2,-8.185594529E-2,-1.954768784E-2
4.875001563E0,-6.352998316E-2,-7.574728876E-2,-1.954768784E-2
4.899995313E0,-7.086037099E-2,-7.330382615E-2,-7.330382708E-3
4.920017188E0,-6.108652428E-2,-6.841690838E-2,-1.221730490E-3
4.945012500E0,-3.543018550E-2,-2.687807009E-2,-4.886921961E-3
4.970010938E0,-3.665191354E-3,0.000000000E0,-9.773843922E-3
4.995006250E0,4.886921868E-2,1.099557430E-2,-1.588249579E-2
5.020003125E0,7.086037099E-2,1.954768784E-2,2.443460980E-3
5.044998438E0,8.063421398E-2,3.420845419E-2,1.588249579E-2
5.069996875E0,8.185594529E-2,3.420845419E-2,6.108652335E-3
5.090018750E0,6.719517708E-2,2.076941729E-2,-4.886921961E-3
5.115014063E0,1.466076542E-2,-2.443460980E-3,-1.099557430E-2
5.140010938E0,-3.176499158E-2,-1.221730467E-2,4.886921961E-3
5.165006250E0,-5.742133036E-2,-5.009094998E-2,6.108652335E-3
5.190004688E0,-5.131268129E-2,-7.941248268E-2,-8.552113548E-3
5.215000000E0,-3.543018550E-2,-8.674286306E-2,-1.954768784E-2
5.239996875E0,-1.466076542E-2,-5.375614017E-2,-2.443460934E-2
5.260020313E0,6.108652335E-3,-8.552113548E-3,-1.832595654E-2
5.285015625E0,3.909537569E-2,4.764748737E-2,2.443460980E-3
5.310010938E0,6.719517708E-2,9.040805697E-2,2.076941729E-2
5.335007813E0,6.108652428E-2,1.356120855E-1,2.443460934E-2
5.360004688E0,4.764748737E-2,1.514945775E-1,2.443460934E-2
5.385001563E0,2.443460934E-2,1.380555481E-1,1.710422710E-2
5.409998438E0,-1.221730490E-3,1.014036313E-1,8.552113548E-3
5.434993750E0,-2.076941729E-2,2.687807009E-2,-2.443460980E-3
5.455015625E0,-2.565634064E-2,-1.832595654E-2,-1.343903504E-2
5.480012500E0,-8.552113548E-3,-9.773843922E-3,-1.221730467E-2
5.505009375E0,3.665191354E-3,2.199114859E-2,-1.221730490E-3
5.530035938E0,-1.099557430E-2,6.108652335E-3,2.443460980E-3
5.555001563E0,-1.832595654E-2,-3.176499158E-2,6.108652335E-3
5.580039063E0,-3.298672289E-2,-5.253440887E-2,1.343903504E-2
5.604995313E0,-4.153883457E-2,-5.253440887E-2,6.108652335E-3
5.625017188E0,-3.787364438E-2,-5.009094998E-2,0.000000000E0
5.650029688E0,-3.420845419E-2,-6.108652428E-2,-2.443460980E-3
5.675010938E0,-1.710422710E-2,-6.841690838E-2,-1.221730490E-3
5.700007813E0,0.000000000E0,-7.208209485E-2,4.886921961E-3
5.725003125E0,-6.108652335E-3,-6.841690838E-2,9.773843922E-3
5.750000000E0,-9.773843922E-3,-5.864306167E-2,0.000000000E0
5.774995313E0,-1.099557430E-2,-4.764748737E-2,-1.221730490E-3
5.795018750E0,-1.343903504E-2,-5.742133036E-2,1.221730490E-3
5.820015625E0,-1.466076542E-2,-6.597344577E-2,-1.221730490E-3
5.845010938E0,-1.343903504E-2,-5.742133036E-2,-1.221730490E-3
5.870007813E0,-8.552113548E-3,-2.932153083E-2,1.221730490E-3
5.895004688E0,-9.773843922E-3,-1.588249579E-2,2.443460980E-3
5.920001563E0,-6.108652335E-3,-1.221730490E-3,3.665191354E-3
5.944996875E0,-1.221730490E-3,1.832595654E-2,1.099557430E-2
5.969993750E0,2.443460980E-3,2.932153083E-2,1.221730467E-2
5.990017188E0,-1.221730490E-3,2.687807009E-2,4.886921961E-3
6.015012500E0,-1.588249579E-2,3.665191354E-3,0.000000000E0
6.040009375E0,-3.176499158E-2,-1.954768784E-2,-2.443460980E-3
6.065004688E0,-3.787364438E-2,-3.543018550E-2,0.000000000E0
6.090001563E0,-3.054326214E-2,-3.298672289E-2,2.443460980E-3
6.114998438E0,-1.343903504E-2,-9.773843922E-3,8.552113548E-3
6.139995313E0,-3.665191354E-3,1.221730490E-3,1.099557430E-2
6.160017188E0,0.000000000E0,-3.665191354E-3,9.773843922E-3
6.185014063E0,4.886921961E-3,-3.665191354E-3,7.330382708E-3
6.210010938E0,1.099557430E-2,7.330382708E-3,7.330382708E-3
6.235006250E0,1.343903504E-2,2.565634064E-2,0.000000000E0
6.260003125E0,7.330382708E-3,2.932153083E-2,-2.443460980E-3
6.284998438E0,-2.443460980E-3,1.832595654E-2,-2.443460980E-3
6.309996875E0,-9.773843922E-3,1.221730490E-3,2.443460980E-3
6.330018750E0,-1.466076542E-2,3.665191354E-3,4.886921961E-3
6.355014063E0,-1.221730467E-2,2.199114859E-2,7.330382708E-3
6.380025000E0,-1.221730490E-3,2.687807009E-2,9.773843922E-3
6.405007813E0,-6.108652335E-3,2.321287990E-2,3.665191354E-3
6.430004688E0,-2.199114859E-2,2.199114859E-2,-4.886921961E-3
6.454998438E0,-3.543018550E-2,3.054326214E-2,-2.443460980E-3
6.479996875E0,-3.543018550E-2,3.543018550E-2,-6.108652335E-3
6.504993750E0,-1.832595654E-2,3.298672289E-2,-4.886921961E-3
6.525015625E0,-1.099557430E-2,2.076941729E-2,-4.886921961E-3
6.550012500E0,-6.108652335E-3,-1.221730490E-3,-3.665191354E-3
6.575009375E0,-1.221730490E-3,-1.710422710E-2,-3.665191354E-3
6.600006250E0,0.000000000E0,-2.321287990E-2,-3.665191354E-3
6.625000000E0,-2.443460980E-3,-3.420845419E-2,-1.221730490E-3
6.649998438E0,3.665191354E-3,-3.420845419E-2,-2.443460980E-3
6.674993750E0,7.330382708E-3,-3.543018550E-2,3.665191354E-3
6.695017188E0,-1.221730490E-3,-3.909537569E-2,1.221730490E-3
6.720012500E0,-1.221730467E-2,-3.787364438E-2,-3.665191354E-3
6.745009375E0,-1.588249579E-2,-1.954768784E-2,-3.665191354E-3
6.770006250E0,-1.710422710E-2,-9.773843922E-3,-3.665191354E-3
6.795003125E0,-1.832595654E-2,-9.773843922E-3,3.665191354E-3
6.820000000E0,-1.954768784E-2,-6.108652335E-3,7.330382708E-3
6.844995313E0,-1.832595654E-2,8.552113548E-3,3.665191354E-3
6.865017188E0,-2.199114859E-2,9.773843922E-3,1.221730490E-3
6.890015625E0,-2.321287990E-2,4.886921961E-3,0.000000000E0
6.915010938E0,-2.199114859E-2,8.552113548E-3,-2.443460980E-3
6.940007813E0,-1.221730467E-2,0.000000000E0,-3.665191354E-3
6.965003125E0,3.665191354E-3,-9.773843922E-3,-1.221730467E-2
6.990001563E0,2.321287990E-2,7.330382708E-3,-2.199114859E-2
7.014996875E0,3.298672289E-2,4.398229718E-2,-2.199114859E-2
7.035018750E0,3.054326214E-2,7.574728876E-2,-9.773843922E-3
7.060015625E0,2.809980139E-2,9.162978828E-2,-2.443460980E-3
7.085010938E0,1.588249579E-2,8.796459436E-2,6.108652335E-3
7.110009375E0,-1.221730490E-3,6.841690838E-2,1.343903504E-2
7.135004688E0,-1.099557430E-2,2.076941729E-2,1.221730467E-2
7.160001563E0,-1.466076542E-2,-9.773843922E-3,6.108652335E-3
7.184996875E0,-2.443460934E-2,-3.665191308E-2,-1.221730490E-3
7.209995313E0,-2.443460934E-2,-4.642575979E-2,-4.886921961E-3
7.230017188E0,-1.588249579E-2,-3.543018550E-2,-3.665191354E-3
7.255012500E0,-1.710422710E-2,-3.543018550E-2,2.443460980E-3
7.280009375E0,-1.832595654E-2,-3.543018550E-2,4.886921961E-3
7.305006250E0,-7.330382708E-3,-2.565634064E-2,3.665191354E-3
7.330003125E0,0.000000000E0,-7.330382708E-3,2.443460980E-3
7.354998438E0,6.108652335E-3,4.886921961E-3,-2.443460980E-3
7.375010938E0,8.552113548E-3,1.099557430E-2,-4.886921961E-3
7.395012500E0,8.552113548E-3,1.832595654E-2,-3.665191354E-3
7.420009375E0,3.665191354E-3,2.687807009E-2,0.000000000E0
7.445004688E0,-1.221730490E-3,3.176499158E-2,3.665191354E-3
7.470001563E0,-2.443460980E-3,3.298672289E-2,0.000000000E0
7.494996875E0,-2.443460980E-3,3.176499158E-2,2.443460980E-3
7.519995313E0,-4.886921961E-3,2.321287990E-2,6.108652335E-3
7.540017188E0,-1.099557430E-2,1.466076542E-2,1.221730467E-2
7.565012500E0,-1.710422710E-2,-2.443460980E-3,1.466076542E-2
7.590010938E0,-2.687807009E-2,-1.954768784E-2,4.886921961E-3
7.615004688E0,-1.954768784E-2,-3.176499158E-2,-1.343903504E-2
7.640003125E0,-1.221730490E-3,-2.199114859E-2,-1.221730467E-2
7.664998438E0,1.588249579E-2,1.466076542E-2,-4.886921961E-3
7.689996875E0,2.199114859E-2,7.330382708E-3,3.665191354E-3
7.710018750E0,1.832595654E-2,-1.466076542E-2,9.773843922E-3
7.735014063E0,3.665191354E-3,-2.687807009E-2,9.773843922E-3
7.760010938E0,-4.886921961E-3,-6.108652335E-3,7.330382708E-3
7.785007813E0,-2.199114859E-2,4.886921961E-3,4.886921961E-3
7.810003125E0,-2.565634064E-2,0.000000000E0,-1.221730490E-3
7.830040625E0,-1.832595654E-2,-3.665191354E-3,-2.443460980E-3
7.854990625E0,-7.330382708E-3,-3.665191354E-3,-1.221730490E-3
7.875012500E0,-6.108652335E-3,9.773843922E-3,-2.443460980E-3
7.900009375E0,-1.221730490E-3,2.687807009E-2,0.000000000E0
7.925006250E0,8.552113548E-3,4.520402849E-2,4.886921961E-3
7.950003125E0,7.330382708E-3,3.298672289E-2,6.108652335E-3
7.974998438E0,4.886921961E-3,1.710422710E-2,1.221730490E-3
7.999995313E0,6.108652335E-3,8.552113548E-3,1.221730490E-3
8.020018750E0,3.665191354E-3,7.330382708E-3,0.000000000E0
8.045014063E0,-1.099557430E-2,-1.221730490E-3,1.221730490E-3
8.070010938E0,-8.552113548E-3,-9.773843922E-3,-1.221730490E-3
8.095007813E0,-8.552113548E-3,-8.552113548E-3,3.665191354E-3
8.120004688E0,-8.552113548E-3,-8.552113548E-3,4.886921961E-3
8.145000000E0,-6.108652335E-3,-3.665191354E-3,4.886921961E-3
8.169996875E0,-6.108652335E-3,-2.443460980E-3,6.108652335E-3
8.190018750E0,-8.552113548E-3,-6.108652335E-3,2.443460980E-3
8.215015625E0,-8.552113548E-3,-3.665191354E-3,-1.221730490E-3
8.240012500E0,-8.552113548E-3,-6.108652335E-3,0.000000000E0
8.265007813E0,-4.886921961E-3,6.108652335E-3,2.443460980E-3
8.290004688E0,-1.221730490E-3,1.099557430E-2,4.886921961E-3
8.315001563E0,-6.108652335E-3,-9.773843922E-3,6.108652335E-3
8.339998438E0,-7.330382708E-3,-1.954768784E-2,1.221730490E-3
8.364995313E0,-6.108652335E-3,-4.886921961E-3,0.000000000E0
8.385017188E0,-8.552113548E-3,-4.886921961E-3,-1.221730490E-3
8.410014063E0,-7.330382708E-3,-1.221730467E-2,-3.665191354E-3
8.435009375E0,-2.443460980E-3,-1.832595654E-2,-1.221730490E-3
8.460006250E0,-8.552113548E-3,-1.710422710E-2,3.665191354E-3
8.485001563E0,-9.773843922E-3,-1.099557430E-2,3.665191354E-3
8.509998438E0,-1.221730467E-2,-2.443460980E-3,4.886921961E-3
8.534995313E0,-8.552113548E-3,2.443460980E-3,0.000000000E0
8.555017188E0,-9.773843922E-3,3.665191354E-3,1.221730490E-3
8.580014063E0,-1.099557430E-2,-3.665191354E-3,-1.221730490E-3
8.605010938E0,-4.886921961E-3,-1.221730490E-3,0.000000000E0
8.630007813E0,-3.665191354E-3,6.108652335E-3,1.221730490E-3
8.655001563E0,-1.221730490E-3,4.886921961E-3,1.221730490E-3
8.680000000E0,-4.886921961E-3,-1.221730490E-3,1.221730490E-3
8.704996875E0,-7.330382708E-3,0.000000000E0,1.221730490E-3
8.725018750E0,-3.665191354E-3,1.221730490E-3,1.221730490E-3
8.750015625E0,-1.221730490E-3,0.000000000E0,-1.221730490E-3
8.775010938E0,-6.108652335E-3,-7.330382708E-3,1.221730490E-3
8.800007813E0,-9.773843922E-3,-8.552113548E-3,0.000000000E0
8.825004688E0,-9.773843922E-3,-1.343903504E-2,1.221730490E-3
8.850001563E0,-7.330382708E-3,-1.343903504E-2,-6.108652335E-3
8.874996875E0,-3.665191354E-3,1.221730490E-3,-8.552113548E-3
8.899993750E0,1.221730490E-3,1.710422710E-2,-1.466076542E-2
8.920017188E0,8.552113548E-3,1.588249579E-2,-1.588249579E-2
8.945012500E0,9.773843922E-3,1.099557430E-2,-7.330382708E-3
8.970009375E0,1.710422710E-2,1.221730467E-2,0.000000000E0
8.995006250E0,1.832595654E-2,3.665191354E-3,6.108652335E-3
9.020003125E0,1.221730467E-2,1.221730467E-2,1.221730490E-3
9.044998438E0,1.832595654E-2,4.764748737E-2,3.665191354E-3
9.069995313E0,7.330382708E-3,5.619960278E-2,4.886921961E-3
9.090018750E0,6.108652335E-3,4.520402849E-2,-4.886921961E-3
9.115014063E0,1.221730467E-2,2.809980139E-2,-2.443460980E-3
9.140010938E0,1.099557430E-2,3.665191354E-3,1.221730490E-3
9.165006250E0,1.466076542E-2,-9.773843922E-3,7.330382708E-3
9.190004688E0,1.221730467E-2,3.665191354E-3,1.221730467E-2
9.215000000E0,1.099557430E-2,9.773843922E-3,1.221730467E-2
9.239996875E0,1.221730490E-3,1.710422710E-2,4.886921961E-3
9.260018750E0,-4.886921961E-3,2.932153083E-2,3.665191354E-3
9.285014063E0,-4.886921961E-3,3.787364438E-2,3.665191354E-3
9.310012500E0,1.221730490E-3,2.809980139E-2,-1.221730490E-3
9.335007813E0,6.108652335E-3,1.221730490E-3,-1.221730490E-3
9.360004688E0,6.108652335E-3,-2.199114859E-2,-3.665191354E-3
9.385000000E0,2.443460980E-3,-1.343903504E-2,-6.108652335E-3
9.409996875E0,6.108652335E-3,1.221730467E-2,-4.886921961E-3
9.434993750E0,0.000000000E0,2.076941729E-2,-2.443460980E-3
9.455015625E0,-3.665191354E-3,9.773843922E-3,-4.886921961E-3
9.480012500E0,2.443460980E-3,4.886921961E-3,-3.665191354E-3
9.505007813E0,1.466076542E-2,1.343903504E-2,-2.443460980E-3
9.530006250E0,2.199114859E-2,1.343903504E-2,-1.221730490E-3
9.555001563E0,2.443460934E-2,1.588249579E-2,-1.221730490E-3
9.579998438E0,1.954768784E-2,1.343903504E-2,-4.886921961E-3
9.604995313E0,1.221730467E-2,4.886921961E-3,-4.886921961E-3
9.625017188E0,1.343903504E-2,-3.665191354E-3,-3.665191354E-3
9.650014063E0,9.773843922E-3,7.330382708E-3,1.221730490E-3
9.675009375E0,9.773843922E-3,0.000000000E0,-4.886921961E-3
9.700006250E0,3.665191354E-3,-2.687807009E-2,-7.330382708E-3
9.725001563E0,0.000000000E0,-3.787364438E-2,-7.330382708E-3
9.750000000E0,-2.443460980E-3,-2.565634064E-2,-6.108652335E-3
9.774995313E0,-8.552113548E-3,-1.221730467E-2,-1.221730467E-2
9.795017188E0,-2.199114859E-2,-4.886921961E-3,-1.466076542E-2
9.820015625E0,-3.787364438E-2,1.221730490E-3,-1.588249579E-2
9.845010938E0,-3.665191308E-2,-7.330382708E-3,-8.552113548E-3
9.870007813E0,-1.954768784E-2,-2.321287990E-2,-4.886921961E-3
9.895003125E0,2.443460980E-3,-3.665191354E-3,0.000000000E0
9.920000000E0,2.321287990E-2,1.832595654E-2,1.099557430E-2
9.944996875E0,3.543018550E-2,2.932153083E-2,1.466076542E-2
9.965018750E0,2.321287990E-2,1.588249579E-2,6.108652335E-3
9.990015625E0,8.552113548E-3,-3.665191354E-3,0.000000000E0
1.001501094E1,4.886921961E-3,-2.932153083E-2,-3.665191354E-3
1.004000938E1,-3.665191354E-3,-3.543018550E-2,-4.886921961E-3
1.006500469E1,-1.466076542E-2,-1.710422710E-2,-2.443460980E-3
1.009000156E1,-1.710422710E-2,-7.330382708E-3,-4.886921961E-3
1.011499688E1,-1.710422710E-2,-1.588249579E-2,-6.108652335E-3
1.013999531E1,-8.552113548E-3,-2.321287990E-2,-7.330382708E-3
1.016001719E1,7.330382708E-3,-8.552113548E-3,1.221730490E-3
1.018501250E1,7.330382708E-3,8.552113548E-3,4.886921961E-3
1.021000938E1,-3.665191354E-3,1.954768784E-2,3.665191354E-3
1.023500625E1,-9.773843922E-3,1.343903504E-2,1.221730490E-3
1.026000312E1,-1.466076542E-2,0.000000000E0,1.221730490E-3
1.028499844E1,-1.099557430E-2,-7.330382708E-3,1.221730490E-3
1.030999531E1,-7.330382708E-3,-1.710422710E-2,1.221730490E-3
1.033001719E1,-6.108652335E-3,-1.099557430E-2,0.000000000E0
1.035501406E1,-4.886921961E-3,6.108652335E-3,0.000000000E0
1.038001094E1,-4.886921961E-3,0.000000000E0,1.221730490E-3
1.040500625E1,-6.108652335E-3,-1.832595654E-2,2.443460980E-3
1.043000312E1,-2.443460980E-3,-2.443460934E-2,1.221730490E-3
1.045500000E1,-3.665191354E-3,-7.330382708E-3,1.221730490E-3
1.047999688E1,-9.773843922E-3,-2.443460980E-3,2.443460980E-3
1.050001875E1,-1.343903504E-2,-7.330382708E-3,2.443460980E-3
1.052501562E1,-1.343903504E-2,-3.665191354E-3,2.443460980E-3
1.055001250E1,-7.330382708E-3,4.886921961E-3,1.221730490E-3
1.057500781E1,-8.552113548E-3,-1.221730490E-3,0.000000000E0
1.060000469E1,-3.665191354E-3,-1.099557430E-2,-6.108652335E-3
1.062500000E1,4.886921961E-3,-4.886921961E-3,-2.443460980E-3
1.064999844E1,0.000000000E0,-1.343903504E-2,-3.665191354E-3
1.067499375E1,1.221730490E-3,-2.932153083E-2,-1.221730490E-3
1.069501562E1,1.221730490E-3,-2.809980139E-2,1.221730490E-3
1.072001250E1,3.665191354E-3,0.000000000E0,3.665191354E-3
1.074500938E1,-3.665191354E-3,3.665191354E-3,6.108652335E-3
1.077000625E1,-7.330382708E-3,-2.565634064E-2,1.221730490E-3
1.079500156E1,-1.099557430E-2,-4.398229718E-2,-6.108652335E-3
1.081999844E1,-1.099557430E-2,-2.687807009E-2,-2.443460980E-3
1.084499531E1,-1.099557430E-2,-1.343903504E-2,1.221730490E-3
1.086501719E1,-9.773843922E-3,-1.588249579E-2,1.221730490E-3
1.089001406E1,-8.552113548E-3,-1.710422710E-2,3.665191354E-3
1.091500938E1,-1.221730467E-2,0.000000000E0,2.443460980E-3
1.094000625E1,-7.330382708E-3,-6.108652335E-3,2.443460980E-3
1.096500312E1,0.000000000E0,-1.954768784E-2,-1.221730490E-3
1.099000000E1,8.552113548E-3,-2.199114859E-2,-3.665191354E-3
1.101499531E1,9.773843922E-3,-1.588249579E-2,-4.886921961E-3
1.103501875E1,4.886921961E-3,-1.466076542E-2,-3.665191354E-3
1.106001562E1,7.330382708E-3,1.221730490E-3,-2.443460980E-3
1.108501094E1,8.552113548E-3,1.588249579E-2,2.443460980E-3
1.111000781E1,4.886921961E-3,2.443460980E-3,2.443460980E-3
1.113500312E1,0.000000000E0,-1.221730467E-2,0.000000000E0
1.116000156E1,2.443460980E-3,-7.330382708E-3,2.443460980E-3
1.118499688E1,-1.221730490E-3,-4.886921961E-3,-3.665191354E-3
1.120999375E1,-2.443460980E-3,-6.108652335E-3,-4.886921961E-3
1.123001562E1,2.443460980E-3,-3.665191354E-3,-3.665191354E-3
1.125501250E1,6.108652335E-3,6.108652335E-3,0.000000000E0
1.128000938E1,8.552113548E-3,1.099557430E-2,6.108652335E-3
1.130500469E1,0.000000000E0,6.108652335E-3,1.099557430E-2
1.133000156E1,-6.108652335E-3,2.443460980E-3,8.552113548E-3
1.135499844E1,-8.552113548E-3,-3.665191354E-3,6.108652335E-3
1.137999531E1,-1.221730467E-2,-1.343903504E-2,3.665191354E-3
1.140001719E1,-8.552113548E-3,-1.710422710E-2,-1.221730490E-3
1.142501406E1,0.000000000E0,-9.773843922E-3,-1.221730490E-3
1.145001094E1,2.443460980E-3,-3.665191354E-3,-2.443460980E-3
1.147500625E1,4.886921961E-3,-1.343903504E-2,7.330382708E-3
1.150000313E1,0.000000000E0,-2.443460934E-2,7.330382708E-3
1.152499844E1,-6.108652335E-3,-2.321287990E-2,7.330382708E-3
1.154999688E1,-4.886921961E-3,-1.343903504E-2,4.886921961E-3
1.157001875E1,-6.108652335E-3,2.443460980E-3,0.000000000E0
1.159501406E1,-3.665191354E-3,1.588249579E-2,-1.221730490E-3
1.162001094E1,-4.886921961E-3,1.710422710E-2,4.886921961E-3
1.164500781E1,-8.552113548E-3,1.099557430E-2,1.099557430E-2
1.167000469E1,-3.665191354E-3,9.773843922E-3,9.773843922E-3
1.169500000E1,1.221730490E-3,7.330382708E-3,9.773843922E-3
1.171999688E1,-1.221730490E-3,-1.221730490E-3,8.552113548E-3
1.174499219E1,-6.108652335E-3,-1.099557430E-2,6.108652335E-3
1.176501562E1,-9.773843922E-3,-1.954768784E-2,4.886921961E-3
1.179001250E1,-6.108652335E-3,-2.199114859E-2,6.108652335E-3
1.181500781E1,-8.552113548E-3,-1.832595654E-2,4.886921961E-3
1.184000625E1,-9.773843922E-3,-8.552113548E-3,8.552113548E-3
1.186500156E1,-3.665191354E-3,1.221730490E-3,1.099557430E-2
1.188999844E1,-1.221730490E-3,-1.221730490E-3,1.343903504E-2
1.191499375E1,-8.552113548E-3,-1.588249579E-2,1.099557430E-2
1.193501719E1,-6.108652335E-3,-1.588249579E-2,8.552113548E-3
1.196001406E1,2.443460980E-3,-1.221730490E-3,1.466076542E-2
1.198500938E1,1.221730467E-2,6.108652335E-3,2.199114859E-2
1.201000625E1,2.443460980E-3,-1.221730490E-3,2.809980139E-2
1.203500313E1,-1.221730490E-3,-2.321287990E-2,4.031710699E-2
1.206000000E1,-6.108652335E-3,-2.321287990E-2,4.153883457E-2
1.208499531E1,-2.199114859E-2,-3.054326214E-2,3.054326214E-2
1.210501719E1,-2.687807009E-2,-4.520402849E-2,2.809980139E-2
1.213001406E1,-1.221730467E-2,-5.619960278E-2,2.932153083E-2
1.215501094E1,4.886921961E-3,-5.619960278E-2,4.276056588E-2
1.218000781E1,9.773843922E-3,-4.886921868E-2,5.375614017E-2
1.220500313E1,1.710422710E-2,-3.543018550E-2,5.497787148E-2
1.223000000E1,2.321287990E-2,-2.321287990E-2,5.131268129E-2
1.225499688E1,3.298672289E-2,-1.954768784E-2,5.742133036E-2
1.227501875E1,4.886921868E-2,-1.343903504E-2,5.742133036E-2
1.230001562E1,5.619960278E-2,-3.665191354E-3,5.864306167E-2
1.232501250E1,6.352998316E-2,-3.665191354E-3,6.352998316E-2
1.235000938E1,7.819075137E-2,4.886921961E-3,5.864306167E-2
1.237500469E1,7.696902007E-2,2.809980139E-2,5.864306167E-2
1.240000156E1,7.574728876E-2,3.543018550E-2,5.864306167E-2
1.242499688E1,6.597344577E-2,4.031710699E-2,5.986479297E-2
1.244999375E1,4.520402849E-2,4.276056588E-2,6.108652428E-2
1.247001719E1,3.176499158E-2,3.298672289E-2,6.475171447E-2
1.249501250E1,2.321287990E-2,2.076941729E-2,6.719517708E-2
1.252000938E1,2.076941729E-2,1.710422710E-2,7.941248268E-2
1.254500469E1,8.552113548E-3,3.176499158E-2,6.841690838E-2
1.257000313E1,-7.330382708E-3,6.475171447E-2,5.375614017E-2
1.259499844E1,2.443460980E-3,9.162978828E-2,4.398229718E-2
1.261999531E1,1.343903504E-2,1.233947799E-1,5.009094998E-2
1.264001719E1,3.787364438E-2,1.123992056E-1,5.986479297E-2
1.266501406E1,6.108652428E-2,8.674286306E-2,5.619960278E-2
1.269001094E1,6.230825558E-2,7.574728876E-2,5.497787148E-2
1.271500625E1,5.131268129E-2,9.407324344E-2,4.520402849E-2
1.274000313E1,4.520402849E-2,9.162978828E-2,4.031710699E-2
1.276500000E1,5.253440887E-2,6.352998316E-2,4.276056588E-2
1.278999688E1,5.131268129E-2,8.429940045E-2,3.054326214E-2
1.281001875E1,3.298672289E-2,1.221730486E-1,3.909537569E-2
1.283501562E1,2.443460980E-3,1.209513173E-1,4.398229718E-2
1.286001250E1,-1.343903504E-2,8.429940045E-2,1.710422710E-2
1.288500781E1,-2.809980139E-2,4.031710699E-2,-1.343903504E-2
1.291000469E1,-2.321287990E-2,1.588249579E-2,-1.221730467E-2
1.293500000E1,-3.665191354E-3,7.330382708E-3,1.466076542E-2
1.295999688E1,1.099557430E-2,4.886921961E-3,2.321287990E-2
1.298499375E1,1.221730467E-2,4.886921961E-3,1.343903504E-2
1.300501562E1,0.000000000E0,-1.221730467E-2,8.552113548E-3
1.303001406E1,-6.108652335E-3,-2.809980139E-2,-2.443460980E-3
1.305500938E1,-1.099557430E-2,-2.809980139E-2,-7.330382708E-3
1.308000625E1,-1.099557430E-2,-3.054326214E-2,-3.665191354E-3
1.310500156E1,-9.773843922E-3,-2.687807009E-2,-2.443460980E-3
1.312999844E1,-1.710422710E-2,-3.176499158E-2,3.665191354E-3
1.315499531E1,-2.443460934E-2,-1.221730467E-2,0.000000000E0
1.317501719E1,-2.687807009E-2,1.466076542E-2,-7.330382708E-3
1.320001250E1,-2.443460934E-2,2.565634064E-2,-3.665191354E-3
1.322500938E1,-1.221730467E-2,2.443460934E-2,6.108652335E-3
1.325000781E1,-1.466076542E-2,1.588249579E-2,1.221730467E-2
1.327500313E1,-2.443460934E-2,1.221730490E-3,8.552113548E-3
1.330000000E1,-2.565634064E-2,-2.076941729E-2,-7.330382708E-3
1.332499531E1,-1.954768784E-2,-3.420845419E-2,-1.954768784E-2
1.334501719E1,1.221730490E-3,-2.809980139E-2,-2.321287990E-2
1.337001562E1,3.176499158E-2,-3.787364438E-2,-1.466076542E-2
1.339501094E1,4.886921868E-2,-3.176499158E-2,-7.330382708E-3
1.342000781E1,4.031710699E-2,-8.552113548E-3,3.665191354E-3
1.344500313E1,7.330382708E-3,4.886921961E-3,8.552113548E-3
1.347000156E1,-3.054326214E-2,6.108652335E-3,1.221730490E-3
1.349499688E1,-6.475171447E-2,-4.886921961E-3,-9.773843922E-3
1.351999375E1,-6.719517708E-2,-1.099557430E-2,-1.466076542E-2
1.354001562E1,-5.375614017E-2,0.000000000E0,-9.773843922E-3
1.356501250E1,-1.710422710E-2,2.321287990E-2,2.443460980E-3
1.359000938E1,-3.665191354E-3,4.276056588E-2,6.108652335E-3
1.361500469E1,6.108652335E-3,5.253440887E-2,4.886921961E-3
1.364000156E1,1.343903504E-2,5.619960278E-2,0.000000000E0
1.366499844E1,9.773843922E-3,5.131268129E-2,-1.343903504E-2
1.368999531E1,-3.665191354E-3,4.886921868E-2,-7.330382708E-3
1.371001719E1,0.000000000E0,4.398229718E-2,-1.221730490E-3
1.373501406E1,9.773843922E-3,3.420845419E-2,-3.665191354E-3
1.376000938E1,2.443460980E-3,4.031710699E-2,-9.773843922E-3
1.378500625E1,-4.886921961E-3,5.864306167E-2,-1.343903504E-2
1.381000313E1,-2.443460980E-3,5.864306167E-2,-1.221730467E-2
1.383499844E1,-1.099557430E-2,4.153883457E-2,-1.221730467E-2
1.385999531E1,-1.221730467E-2,3.909537569E-2,-4.886921961E-3
1.388001875E1,-1.588249579E-2,2.565634064E-2,-1.221730490E-3
1.390501406E1,-1.343903504E-2,4.886921961E-3,-6.108652335E-3
1.393001094E1,-9.773843922E-3,-8.552113548E-3,-1.832595654E-2
1.395500781E1,-1.466076542E-2,-1.221730490E-3,-2.199114859E-2
1.398000313E1,-6.108652335E-3,2.199114859E-2,-1.466076542E-2
1.400500000E1,7.330382708E-3,4.764748737E-2,-9.773843922E-3
1.402999688E1,9.773843922E-3,6.230825558E-2,-1.466076542E-2
1.405001875E1,6.108652335E-3,6.230825558E-2,-1.343903504E-2
1.407501562E1,1.221730490E-3,8.552113175E-2,-9.773843922E-3
1.410001250E1,1.221730490E-3,9.896016866E-2,-6.108652335E-3
1.412500938E1,-1.221730467E-2,7.330382615E-2,-1.221730467E-2
1.415000625E1,-1.343903504E-2,5.742133036E-2,-3.420845419E-2
1.417500000E1,-4.886921961E-3,6.719517708E-2,-4.398229718E-2
1.419999844E1,-1.099557430E-2,5.742133036E-2,-2.809980139E-2
1.422499375E1,-6.108652335E-3,4.398229718E-2,-8.552113548E-3
1.424501562E1,6.108652335E-3,5.375614017E-2,0.000000000E0
1.427001406E1,-4.886921961E-3,5.986479297E-2,0.000000000E0
1.429500938E1,-2.076941729E-2,6.230825558E-2,-6.108652335E-3
1.432000625E1,-1.954768784E-2,5.253440887E-2,-6.108652335E-3
1.434500156E1,-1.710422710E-2,1.832595654E-2,-8.552113548E-3
1.436999844E1,-2.076941729E-2,-3.665191354E-3,-9.773843922E-3
1.439499375E1,-3.909537569E-2,1.710422710E-2,-1.466076542E-2
1.441501719E1,-5.131268129E-2,2.321287990E-2,-1.588249579E-2
1.444001406E1,-5.986479297E-2,-1.099557430E-2,-1.710422710E-2
1.446501094E1,-4.276056588E-2,-4.031710699E-2,-1.588249579E-2
1.449000781E1,-3.298672289E-2,-4.520402849E-2,-1.343903504E-2
1.451500313E1,-1.710422710E-2,-3.298672289E-2,-1.343903504E-2
1.454000000E1,-1.466076542E-2,-1.588249579E-2,-7.330382708E-3
1.456499531E1,-2.321287990E-2,3.665191354E-3,-3.665191354E-3
1.458501875E1,-3.054326214E-2,1.221730490E-3,-3.665191354E-3
1.461001562E1,-4.886921868E-2,-1.221730490E-3,-8.552113548E-3
1.463501094E1,-5.497787148E-2,-4.886921961E-3,-2.443460980E-3
1.466000938E1,-5.619960278E-2,-8.552113548E-3,-2.443460980E-3
1.468500469E1,-6.108652428E-2,-1.832595654E-2,-7.330382708E-3
1.471000156E1,-6.352998316E-2,-4.031710699E-2,-7.330382708E-3
1.473499688E1,-4.764748737E-2,-4.398229718E-2,-9.773843922E-3
1.475999375E1,-3.420845419E-2,-2.076941729E-2,-8.552113548E-3
1.478001719E1,-2.565634064E-2,-1.710422710E-2,-4.886921961E-3
1.480501250E1,-7.330382708E-3,-2.932153083E-2,-3.665191354E-3
1.483000938E1,3.665191354E-3,-2.199114859E-2,0.000000000E0
1.485500625E1,1.588249579E-2,-1.099557430E-2,-3.665191354E-3
1.488000156E1,0.000000000E0,-1.588249579E-2,-6.108652335E-3
1.490499844E1,-1.710422710E-2,-2.809980139E-2,-8.552113548E-3
1.492999531E1,-2.321287990E-2,-2.565634064E-2,-7.330382708E-3
1.495001719E1,-2.809980139E-2,-2.076941729E-2,-1.221730490E-3
1.497501406E1,-3.054326214E-2,-8.552113548E-3,-1.221730490E-3
1.500001094E1,-2.076941729E-2,1.099557430E-2,-9.773843922E-3
1.502500625E1,-2.687807009E-2,2.076941729E-2,-1.343903504E-2
1.505000313E1,-2.565634064E-2,1.099557430E-2,-9.773843922E-3
1.507500000E1,-1.466076542E-2,1.343903504E-2,-7.330382708E-3
1.509999688E1,1.221730490E-3,2.443460934E-2,-4.886921961E-3
1.512001875E1,6.108652335E-3,4.153883457E-2,0.000000000E0
1.514501406E1,1.832595654E-2,5.497787148E-2,2.443460980E-3
1.517001094E1,1.588249579E-2,5.864306167E-2,0.000000000E0
1.519500781E1,6.108652335E-3,3.543018550E-2,-1.221730490E-3
1.522000469E1,-9.773843922E-3,2.932153083E-2,-1.221730490E-3
1.524500000E1,-2.809980139E-2,1.588249579E-2,1.221730490E-3
1.526999688E1,-3.909537569E-2,-4.886921961E-3,-6.108652335E-3
1.529499375E1,-3.787364438E-2,-2.321287990E-2,-2.443460934E-2
1.531501563E1,-3.787364438E-2,-4.520402849E-2,-2.565634064E-2
1.534001250E1,-3.787364438E-2,-6.597344577E-2,-1.954768784E-2
1.536500938E1,-1.221730467E-2,-8.063421398E-2,-1.343903504E-2
1.539000625E1,8.552113548E-3,-7.574728876E-2,-1.343903504E-2
1.541500156E1,6.108652335E-3,-5.009094998E-2,-1.221730467E-2
1.543999844E1,1.343903504E-2,-4.153883457E-2,-1.466076542E-2
1.546499375E1,2.809980139E-2,-5.131268129E-2,-1.710422710E-2
1.548501719E1,3.176499158E-2,-5.253440887E-2,-1.343903504E-2
1.551001406E1,3.176499158E-2,-4.153883457E-2,-8.552113548E-3
1.553500938E1,3.054326214E-2,-4.886921868E-2,-3.665191354E-3
1.556000625E1,2.076941729E-2,-6.597344577E-2,-7.330382708E-3
1.558500313E1,1.343903504E-2,-7.086037099E-2,-1.588249579E-2
1.560999844E1,2.443460980E-3,-5.375614017E-2,-1.466076542E-2
1.563499531E1,1.221730490E-3,-6.230825558E-2,-1.221730467E-2
1.565501719E1,1.710422710E-2,-7.452555746E-2,-1.954768784E-2
1.568001563E1,3.543018550E-2,-7.330382615E-2,-2.932153083E-2
1.570501094E1,4.642575979E-2,-4.520402849E-2,-1.466076542E-2
1.573000625E1,5.253440887E-2,-3.054326214E-2,1.221730490E-3
1.575500313E1,5.864306167E-2,-5.497787148E-2,4.886921961E-3
1.578000000E1,5.986479297E-2,-8.674286306E-2,-1.466076542E-2
1.580499688E1,6.352998316E-2,-8.552113175E-2,-3.176499158E-2
1.582501875E1,5.864306167E-2,-8.429940045E-2,-3.176499158E-2
1.585001563E1,5.742133036E-2,-8.918632567E-2,-2.687807009E-2
1.587501250E1,5.131268129E-2,-1.001819000E-1,-1.832595654E-2
1.590000938E1,2.443460934E-2,-8.674286306E-2,-1.466076542E-2
1.592500469E1,-2.443460980E-3,-5.375614017E-2,-1.343903504E-2
1.595000156E1,-1.221730467E-2,-2.932153083E-2,-1.343903504E-2
1.597499688E1,-9.773843922E-3,0.000000000E0,-8.552113548E-3
1.599999531E1,-4.886921961E-3,5.009094998E-2,-2.443460980E-3
1.602001719E1,8.552113548E-3,1.099557430E-1,6.108652335E-3
1.604501250E1,2.321287990E-2,1.612684280E-1,9.773843922E-3
1.607000938E1,3.054326214E-2,1.991420686E-1,1.221730490E-3
1.609500625E1,3.054326214E-2,2.431243658E-1,-9.773843922E-3
1.612000312E1,2.565634064E-2,2.785545588E-1,-1.466076542E-2
1.614499844E1,2.687807009E-2,2.993239760E-1,-4.886921961E-3
1.616999531E1,2.443460934E-2,2.956587672E-1,8.552113548E-3
1.619001875E1,2.565634064E-2,2.761110961E-1,1.221730467E-2
1.621501406E1,1.466076542E-2,2.480112910E-1,1.466076542E-2
1.624001094E1,6.108652335E-3,2.076941729E-1,1.466076542E-2
1.626500625E1,3.665191354E-3,1.380555481E-1,4.886921961E-3
1.629000469E1,-3.665191354E-3,8.674286306E-2,-1.466076542E-2
1.631500000E1,-1.221730467E-2,4.520402849E-2,-1.710422710E-2
1.633999688E1,-1.466076542E-2,8.552113548E-3,-7.330382708E-3
1.636001875E1,-2.443460980E-3,1.221730490E-3,3.665191354E-3
1.638501562E1,-3.665191354E-3,1.221730490E-3,3.665191354E-3
1.641001250E1,-4.886921961E-3,-1.588249579E-2,-9.773843922E-3
1.643500781E1,-2.443460980E-3,-5.742133036E-2,-1.588249579E-2
1.646000469E1,-1.466076542E-2,-7.696902007E-2,-1.099557430E-2
1.648500000E1,-2.076941729E-2,-1.050688177E-1,-7.330382708E-3
1.650999844E1,-2.321287990E-2,-1.466076523E-1,-8.552113548E-3
1.653499375E1,-1.588249579E-2,-1.624901593E-1,-8.552113548E-3
1.655501562E1,-1.221730467E-2,-1.551597714E-1,-1.466076542E-2
1.658001406E1,-1.099557430E-2,-1.441641897E-1,-1.710422710E-2
1.660500938E1,0.000000000E0,-1.307251602E-1,-1.343903504E-2
1.663000625E1,2.443460980E-3,-9.285151958E-2,-6.108652335E-3
1.665500156E1,-7.330382708E-3,-6.108652428E-2,0.000000000E0
1.667999844E1,-1.954768784E-2,-6.719517708E-2,4.886921961E-3
1.670499531E1,-2.321287990E-2,-7.819075137E-2,3.665191354E-3
1.672501719E1,-2.443460934E-2,-7.330382615E-2,-7.330382708E-3
1.675001406E1,-2.565634064E-2,-6.108652428E-2,-1.343903504E-2
1.677501094E1,-2.932153083E-2,-5.742133036E-2,-1.343903504E-2
1.680000781E1,-2.687807009E-2,-4.398229718E-2,-9.773843922E-3
1.682500156E1,-1.343903504E-2,-2.932153083E-2,0.000000000E0
1.685000000E1,-7.330382708E-3,-2.565634064E-2,3.665191354E-3
1.687499531E1,0.000000000E0,-1.343903504E-2,0.000000000E0
1.689501875E1,1.221730490E-3,-1.099557430E-2,0.000000000E0
1.692001562E1,-9.773843922E-3,-3.543018550E-2,-1.221730490E-3
1.694501094E1,-1.466076542E-2,-5.619960278E-2,-8.552113548E-3
1.697000781E1,-1.588249579E-2,-3.909537569E-2,-1.221730467E-2
1.699500312E1,-1.954768784E-2,-1.588249579E-2,-9.773843922E-3
1.702000000E1,-1.710422710E-2,-9.773843922E-3,-3.665191354E-3
1.704499688E1,-9.773843922E-3,-2.443460980E-3,2.443460980E-3
1.706999375E1,1.221730490E-3,6.108652335E-3,4.886921961E-3
1.709001562E1,4.886921961E-3,3.665191354E-3,3.665191354E-3
1.711501250E1,-2.443460980E-3,1.221730490E-3,2.443460980E-3
1.714000938E1,-3.665191354E-3,1.466076542E-2,0.000000000E0
1.716500469E1,-9.773843922E-3,2.076941729E-2,-1.221730490E-3
1.719000156E1,-2.076941729E-2,4.886921961E-3,0.000000000E0
1.721499844E1,-1.710422710E-2,-2.443460980E-3,-2.443460980E-3
1.723999531E1,-1.099557430E-2,1.099557430E-2,0.000000000E0
1.726001719E1,-7.330382708E-3,6.108652335E-3,1.221730490E-3
1.728501406E1,1.221730490E-3,-4.886921961E-3,1.221730490E-3
1.731001094E1,2.443460980E-3,-1.221730490E-3,4.886921961E-3
1.733500625E1,4.886921961E-3,1.710422710E-2,1.221730490E-3
1.736000313E1,4.886921961E-3,2.443460934E-2,1.221730490E-3
1.738499844E1,0.000000000E0,1.221730467E-2,-1.221730490E-3
1.740999688E1,-3.665191354E-3,1.221730467E-2,-2.443460980E-3
1.743001875E1,-9.773843922E-3,9.773843922E-3,2.443460980E-3
1.745501406E1,-1.466076542E-2,4.886921961E-3,2.443460980E-3
1.748001094E1,-1.221730467E-2,-7.330382708E-3,2.443460980E-3
1.750500781E1,-2.443460980E-3,-9.773843922E-3,-1.221730490E-3
1.753000469E1,3.665191354E-3,-9.773843922E-3,1.221730490E-3
1.755500000E1,0.000000000E0,-1.710422710E-2,1.221730490E-3
1.757999688E1,2.443460980E-3,-1.710422710E-2,-1.221730490E-3
1.760499375E1,1.221730490E-3,-1.466076542E-2,2.443460980E-3
1.762501562E1,-4.886921961E-3,-2.565634064E-2,2.443460980E-3
1.765001250E1,-7.330382708E-3,-3.176499158E-2,-2.443460980E-3
1.767500781E1,-8.552113548E-3,-3.298672289E-2,-1.221730490E-3
1.770000469E1,-1.099557430E-2,-3.420845419E-2,-2.443460980E-3
1.772500156E1,-1.099557430E-2,-2.687807009E-2,-1.221730490E-3
1.774999844E1,-4.886921961E-3,-2.076941729E-2,0.000000000E0
1.777499375E1,-1.221730490E-3,-6.108652335E-3,4.886921961E-3
1.779501719E1,-1.221730490E-3,-1.221730490E-3,4.886921961E-3
1.782001406E1,0.000000000E0,-6.108652335E-3,8.552113548E-3
1.784500938E1,2.443460980E-3,6.108652335E-3,4.886921961E-3
1.787000625E1,-4.886921961E-3,7.330382708E-3,3.665191354E-3
1.789500156E1,-1.466076542E-2,-2.443460980E-3,2.443460980E-3
1.792000000E1,-1.954768784E-2,0.000000000E0,1.221730490E-3
1.794499531E1,-1.954768784E-2,8.552113548E-3,4.886921961E-3
1.796501719E1,-2.443460934E-2,1.221730490E-3,3.665191354E-3
1.799001406E1,-2.687807009E-2,2.443460980E-3,-1.221730490E-3
1.801501094E1,-2.076941729E-2,7.330382708E-3,-1.221730490E-3
1.804000781E1,-1.099557430E-2,-2.443460980E-3,3.665191354E-3
1.806500312E1,-2.443460980E-3,-1.343903504E-2,6.108652335E-3
1.809000000E1,-2.443460980E-3,-1.710422710E-2,8.552113548E-3
1.811499531E1,-4.886921961E-3,-1.466076542E-2,4.886921961E-3
1.813501875E1,-1.221730467E-2,-1.221730467E-2,0.000000000E0
1.816001562E1,-1.343903504E-2,-1.710422710E-2,-1.221730490E-3
1.818501094E1,-1.221730467E-2,-1.466076542E-2,0.000000000E0
1.821000781E1,-1.221730467E-2,-8.552113548E-3,2.443460980E-3
1.823500469E1,-4.886921961E-3,-7.330382708E-3,6.108652335E-3
1.826000156E1,2.443460980E-3,4.886921961E-3,2.443460980E-3
1.828499688E1,2.443460980E-3,1.099557430E-2,3.665191354E-3
1.830999531E1,-2.443460980E-3,7.330382708E-3,3.665191354E-3
1.833001719E1,-7.330382708E-3,1.221730467E-2,7.330382708E-3
1.835501250E1,-9.773843922E-3,1.221730467E-2,4.886921961E-3
1.838000938E1,-1.954768784E-2,8.552113548E-3,1.221730490E-3
1.840500469E1,-2.443460934E-2,-6.108652335E-3,-1.221730490E-3
1.843000313E1,-2.809980139E-2,-2.076941729E-2,1.221730490E-3
1.845499844E1,-2.199114859E-2,-3.176499158E-2,6.108652335E-3
1.847999531E1,-1.588249579E-2,-3.054326214E-2,6.108652335E-3
1.850001719E1,-1.466076542E-2,-1.710422710E-2,6.108652335E-3
1.852501406E1,-1.710422710E-2,-1.588249579E-2,6.108652335E-3
1.855001094E1,-2.199114859E-2,-2.687807009E-2,4.886921961E-3
1.857500781E1,-2.076941729E-2,-3.420845419E-2,-6.108652335E-3
1.860000312E1,-1.588249579E-2,-1.099557430E-2,-1.588249579E-2
1.862500000E1,-1.466076542E-2,6.108652335E-3,-8.552113548E-3
1.864999688E1,-6.108652335E-3,9.773843922E-3,6.108652335E-3
1.867001875E1,7.330382708E-3,1.221730490E-3,1.221730467E-2
1.869501406E1,9.773843922E-3,-1.466076542E-2,1.343903504E-2
1.872001250E1,1.099557430E-2,-1.343903504E-2,7.330382708E-3
1.874500781E1,2.443460980E-3,1.221730490E-3,-1.221730490E-3
1.877000469E1,-6.108652335E-3,-2.443460980E-3,-4.886921961E-3
1.879500000E1,-1.710422710E-2,-2.809980139E-2,-2.443460980E-3
1.881999844E1,-1.832595654E-2,-4.153883457E-2,1.221730490E-3
1.884499375E1,-1.588249579E-2,-3.054326214E-2,1.221730490E-3
1.886501562E1,-1.832595654E-2,-2.565634064E-2,0.000000000E0
1.889001250E1,-2.321287990E-2,-1.954768784E-2,-4.886921961E-3
1.891500938E1,-2.565634064E-2,-4.886921961E-3,-1.221730467E-2
1.894000625E1,-3.176499158E-2,-1.221730467E-2,-3.665191354E-3
1.896500000E1,-2.321287990E-2,-1.710422710E-2,-3.665191354E-3
1.898999844E1,-1.954768784E-2,2.443460980E-3,-2.443460980E-3
1.901499375E1,-2.443460934E-2,3.176499158E-2,6.108652335E-3
1.903501562E1,-2.076941729E-2,3.909537569E-2,2.443460980E-3
1.906001406E1,-7.330382708E-3,3.543018550E-2,-1.221730490E-3
1.908500938E1,0.000000000E0,2.076941729E-2,-7.330382708E-3
1.911000625E1,-6.108652335E-3,8.552113548E-3,-7.330382708E-3
1.913500312E1,-6.108652335E-3,0.000000000E0,0.000000000E0
1.916000000E1,-8.552113548E-3,-4.886921961E-3,6.108652335E-3
1.918499531E1,-6.108652335E-3,-4.886921961E-3,4.886921961E-3
1.920501719E1,-1.221730490E-3,2.443460980E-3,-3.665191354E-3
1.923001562E1,-7.330382708E-3,1.221730467E-2,-7.330382708E-3
1.925501094E1,-1.221730467E-2,2.076941729E-2,-1.343903504E-2
1.928000781E1,-1.343903504E-2,2.565634064E-2,-9.773843922E-3
1.930500313E1,-9.773843922E-3,1.832595654E-2,-1.221730490E-3
1.933000000E1,-3.665191354E-3,4.886921961E-3,1.221730490E-3
1.935499688E1,-7.330382708E-3,8.552113548E-3,0.000000000E0
1.937999375E1,-1.832595654E-2,1.710422710E-2,-4.886921961E-3
1.940001562E1,-2.565634064E-2,2.443460934E-2,-8.552113548E-3
1.942501250E1,-2.076941729E-2,2.076941729E-2,-1.343903504E-2
1.945000938E1,-1.221730467E-2,7.330382708E-3,-1.466076542E-2
1.947500469E1,-7.330382708E-3,2.443460980E-3,-1.710422710E-2
1.950000156E1,-3.665191354E-3,7.330382708E-3,-1.832595654E-2
1.952499688E1,2.443460980E-3,4.886921961E-3,-1.710422710E-2
1.954999531E1,1.588249579E-2,-8.552113548E-3,-9.773843922E-3
1.957001719E1,1.954768784E-2,-1.221730467E-2,-3.665191354E-3
1.959501250E1,2.199114859E-2,1.221730467E-2,-3.665191354E-3
1.962001094E1,1.832595654E-2,2.809980139E-2,-1.221730467E-2
1.964500469E1,0.000000000E0,1.832595654E-2,-1.466076542E-2
1.967000312E1,2.443460980E-3,1.221730467E-2,-1.710422710E-2
1.969499844E1,1.343903504E-2,3.298672289E-2,-1.832595654E-2
1.971999688E1,2.443460980E-3,4.276056588E-2,-1.710422710E-2
1.974001875E1,-2.443460980E-3,4.276056588E-2,-1.466076542E-2
1.976501406E1,0.000000000E0,4.398229718E-2,-7.330382708E-3
1.979001094E1,1.099557430E-2,2.932153083E-2,3.665191354E-3
1.981500781E1,1.832595654E-2,1.221730490E-3,2.443460980E-3
1.984000313E1,2.687807009E-2,-1.466076542E-2,-3.665191354E-3
1.986500000E1,2.565634064E-2,-4.031710699E-2,-9.773843922E-3
1.988999688E1,1.221730467E-2,-4.398229718E-2,-1.588249579E-2
1.991001875E1,-3.665191354E-3,-4.276056588E-2,-1.466076542E-2
1.993501563E1,-7.330382708E-3,-3.298672289E-2,-1.588249579E-2
1.996001250E1,2.443460980E-3,-1.832595654E-2,-1.588249579E-2
1.998500781E1,1.954768784E-2,-2.199114859E-2,-7.330382708E-3
2.001000625E1,2.076941729E-2,-9.773843922E-3,1.221730490E-3
2.003500156E1,2.321287990E-2,4.886921961E-3,4.886921961E-3
2.005999844E1,2.687807009E-2,9.773843922E-3,-1.221730490E-3
2.008499375E1,1.588249579E-2,4.886921961E-3,-9.773843922E-3
2.010501562E1,6.108652335E-3,2.443460980E-3,-9.773843922E-3
2.013001406E1,1.221730490E-3,8.552113548E-3,-8.552113548E-3
2.015500938E1,0.000000000E0,6.108652335E-3,-2.443460980E-3
2.018000938E1,3.665191354E-3,-9.773843922E-3,0.000000000E0
2.020500156E1,1.466076542E-2,-6.108652335E-3,-2.443460980E-3
2.022999844E1,1.954768784E-2,1.221730490E-3,-3.665191354E-3
2.025499375E1,1.954768784E-2,-2.443460980E-3,-2.443460980E-3
2.027501719E1,2.076941729E-2,-8.552113548E-3,-2.443460980E-3
2.030001406E1,1.343903504E-2,-1.710422710E-2,-4.886921961E-3
2.032500938E1,9.773843922E-3,-6.108652335E-3,-7.330382708E-3
2.035000781E1,9.773843922E-3,1.954768784E-2,-6.108652335E-3
2.037500313E1,0.000000000E0,2.199114859E-2,-1.221730490E-3
2.040000000E1,-1.099557430E-2,1.954768784E-2,0.000000000E0
2.042499531E1,-1.099557430E-2,2.687807009E-2,6.108652335E-3
2.044501875E1,-4.886921961E-3,4.398229718E-2,8.552113548E-3
2.047001563E1,-7.330382708E-3,5.131268129E-2,8.552113548E-3
2.049501094E1,-7.330382708E-3,2.321287990E-2,6.108652335E-3
2.052000781E1,-3.665191354E-3,9.773843922E-3,0.000000000E0
2.054500469E1,-4.886921961E-3,2.076941729E-2,-3.665191354E-3
2.057000156E1,-9.773843922E-3,1.954768784E-2,-4.886921961E-3
2.059499688E1,-1.221730490E-3,-7.330382708E-3,-4.886921961E-3
2.061999531E1,1.221730490E-3,-1.832595654E-2,-4.886921961E-3
2.064001719E1,4.886921961E-3,-6.108652335E-3,-4.886921961E-3
2.066501250E1,7.330382708E-3,9.773843922E-3,0.000000000E0
2.069000938E1,7.330382708E-3,1.954768784E-2,0.000000000E0
2.071500625E1,8.552113548E-3,1.588249579E-2,1.221730490E-3
2.074000156E1,2.443460980E-3,4.886921961E-3,-6.108652335E-3
2.076499844E1,-1.221730490E-3,9.773843922E-3,-6.108652335E-3
2.078999531E1,2.443460980E-3,8.552113548E-3,0.000000000E0
2.081001719E1,6.108652335E-3,1.221730467E-2,2.443460980E-3
2.083501406E1,0.000000000E0,4.886921961E-3,7.330382708E-3
2.086001094E1,-3.665191354E-3,-1.588249579E-2,2.443460980E-3
2.088500625E1,-7.330382708E-3,-1.710422710E-2,-4.886921961E-3
2.091000313E1,3.665191354E-3,1.221730490E-3,-4.886921961E-3
2.093500000E1,8.552113548E-3,-2.443460980E-3,-2.443460980E-3
2.095999688E1,6.108652335E-3,-1.832595654E-2,-3.665191354E-3
2.098001875E1,2.443460980E-3,-2.443460934E-2,-2.443460980E-3
2.100501406E1,1.221730490E-3,-2.321287990E-2,2.443460980E-3
2.103001094E1,-6.108652335E-3,-2.199114859E-2,2.443460980E-3
2.105500781E1,-1.099557430E-2,-2.199114859E-2,0.000000000E0
2.108000469E1,-1.343903504E-2,-1.954768784E-2,-2.443460980E-3
2.110500000E1,-1.343903504E-2,-1.466076542E-2,-1.221730490E-3
2.112999688E1,-1.221730467E-2,-8.552113548E-3,3.665191354E-3
2.115499375E1,-8.552113548E-3,-1.099557430E-2,6.108652335E-3
2.117501562E1,-8.552113548E-3,-1.221730467E-2,3.665191354E-3
2.120001250E1,-9.773843922E-3,-2.199114859E-2,-1.221730490E-3
2.122500938E1,-1.099557430E-2,-1.099557430E-2,-4.886921961E-3
2.125000469E1,-4.886921961E-3,7.330382708E-3,-1.221730490E-3
2.127500156E1,-3.665191354E-3,3.665191354E-3,3.665191354E-3
2.129999844E1,-3.665191354E-3,-1.466076542E-2,4.886921961E-3
2.132499375E1,-1.221730490E-3,-1.832595654E-2,3.665191354E-3
2.134501563E1,-2.443460980E-3,-3.665191354E-3,2.443460980E-3
2.137001250E1,-4.886921961E-3,4.886921961E-3,1.221730490E-3
2.139500938E1,-3.665191354E-3,1.221730490E-3,1.221730490E-3
2.142000625E1,-3.665191354E-3,-7.330382708E-3,1.221730490E-3
2.144500156E1,-2.443460980E-3,-2.443460980E-3,2.443460980E-3
2.147000000E1,-4.886921961E-3,-2.443460980E-3,2.443460980E-3
2.149499531E1,-4.886921961E-3,0.000000000E0,0.000000000E0
2.151501719E1,-1.221730490E-3,1.221730490E-3,-1.221730490E-3
2.154001563E1,-1.221730490E-3,1.221730490E-3,0.000000000E0
2.156501094E1,-3.665191354E-3,8.552113548E-3,3.665191354E-3
2.159000781E1,-4.886921961E-3,1.466076542E-2,2.443460980E-3
2.161500312E1,-4.886921961E-3,6.108652335E-3,1.221730490E-3
2.164000000E1,-9.773843922E-3,-1.221730490E-3,1.221730490E-3
2.166499688E1,-7.330382708E-3,9.773843922E-3,0.000000000E0
2.168501875E1,-6.108652335E-3,1.221730467E-2,-1.221730490E-3
2.171001562E1,-6.108652335E-3,1.221730490E-3,-1.221730490E-3
2.173501094E1,-1.221730490E-3,-9.773843922E-3,1.221730490E-3
2.176000938E1,-2.443460980E-3,-1.221730490E-3,3.665191354E-3
2.178500469E1,-3.665191354E-3,-1.221730490E-3,4.886921961E-3
2.181000156E1,-6.108652335E-3,-8.552113548E-3,1.221730490E-3
2.183499844E1,-8.552113548E-3,-1.343903504E-2,-3.665191354E-3
2.185999375E1,-1.099557430E-2,-6.108652335E-3,0.000000000E0
2.188001719E1,-1.099557430E-2,-1.099557430E-2,1.221730490E-3
2.190501250E1,-2.443460980E-3,-1.343903504E-2,1.221730490E-3
2.193000938E1,-3.665191354E-3,-8.552113548E-3,0.000000000E0
2.195500469E1,-2.443460980E-3,-7.330382708E-3,0.000000000E0
2.198000312E1,0.000000000E0,-4.886921961E-3,0.000000000E0
2.200499844E1,-1.221730490E-3,0.000000000E0,1.221730490E-3
2.202999531E1,-2.443460980E-3,-3.665191354E-3,1.221730490E-3
2.205001875E1,-1.221730490E-3,-9.773843922E-3,1.221730490E-3
2.207501406E1,-1.221730490E-3,-6.108652335E-3,-1.221730490E-3
2.210001094E1,2.443460980E-3,6.108652335E-3,0.000000000E0
2.212500781E1,6.108652335E-3,9.773843922E-3,1.221730490E-3
2.215000312E1,0.000000000E0,-1.221730490E-3,2.443460980E-3
2.217500000E1,1.221730490E-3,-2.443460980E-3,0.000000000E0
2.219999688E1,-3.665191354E-3,6.108652335E-3,0.000000000E0
2.222001875E1,-3.665191354E-3,0.000000000E0,-1.221730490E-3
2.224501406E1,1.221730490E-3,-6.108652335E-3,-2.443460980E-3
2.227001250E1,-1.221730490E-3,-2.443460980E-3,0.000000000E0
2.229500781E1,0.000000000E0,6.108652335E-3,2.443460980E-3
2.232000469E1,0.000000000E0,9.773843922E-3,2.443460980E-3
2.234500156E1,0.000000000E0,7.330382708E-3,1.221730490E-3
2.236999844E1,1.221730490E-3,3.665191354E-3,2.443460980E-3
2.239499375E1,1.221730490E-3,-3.665191354E-3,0.000000000E0
2.241501563E1,-1.221730490E-3,-2.443460980E-3,-1.221730490E-3
2.244001406E1,-2.443460980E-3,3.665191354E-3,-2.443460980E-3
2.246500938E1,-2.443460980E-3,4.886921961E-3,1.221730490E-3
2.249000625E1,-1.221730490E-3,4.886921961E-3,4.886921961E-3
2.251500156E1,-1.221730490E-3,-1.221730490E-3,2.443460980E-3
2.253999844E1,-1.221730490E-3,-3.665191354E-3,3.665191354E-3
2.256499531E1,-2.443460980E-3,-4.886921961E-3,-1.221730490E-3
2.258501719E1,-6.108652335E-3,-7.330382708E-3,-2.443460980E-3
2.261001406E1,-6.108652335E-3,-4.886921961E-3,-1.221730490E-3
2.263500938E1,-7.330382708E-3,-3.665191354E-3,1.221730490E-3
2.266000625E1,-3.665191354E-3,-2.443460980E-3,1.221730490E-3
2.268500312E1,0.000000000E0,0.000000000E0,2.443460980E-3
2.271000000E1,1.221730490E-3,-3.665191354E-3,3.665191354E-3
2.273499531E1,-4.886921961E-3,-8.552113548E-3,2.443460980E-3
2.275501875E1,-7.330382708E-3,-1.099557430E-2,-2.443460980E-3
2.278001562E1,-1.221730467E-2,-9.773843922E-3,-2.443460980E-3
2.280501094E1,-1.099557430E-2,-9.773843922E-3,1.221730490E-3
2.283000938E1,-8.552113548E-3,-8.552113548E-3,2.443460980E-3
2.285500313E1,-4.886921961E-3,-9.773843922E-3,2.443460980E-3
2.288000156E1,-7.330382708E-3,-3.665191354E-3,1.221730490E-3
2.290499688E1,-8.552113548E-3,-2.443460980E-3,1.221730490E-3
2.292999375E1,-1.099557430E-2,-7.330382708E-3,1.221730490E-3
2.295001719E1,-1.221730467E-2,-9.773843922E-3,1.221730490E-3
2.297501250E1,-7.330382708E-3,-7.330382708E-3,0.000000000E0
2.300000938E1,-6.108652335E-3,-7.330382708E-3,1.221730490E-3
2.302500625E1,-6.108652335E-3,-4.886921961E-3,2.443460980E-3
2.305000156E1,-1.221730467E-2,1.221730490E-3,4.886921961E-3
2.307499844E1,-1.588249579E-2,-4.886921961E-3,2.443460980E-3
2.309999531E1,-9.773843922E-3,-6.108652335E-3,0.000000000E0
2.312001875E1,-8.552113548E-3,-4.886921961E-3,2.443460980E-3
2.314501406E1,-1.099557430E-2,2.443460980E-3,-2.443460980E-3
2.317001094E1,-4.886921961E-3,4.886921961E-3,3.665191354E-3
2.319500625E1,-9.773843922E-3,-8.552113548E-3,4.886921961E-3
2.322000312E1,-8.552113548E-3,-1.832595654E-2,2.443460980E-3
2.324499844E1,-7.330382708E-3,-2.076941729E-2,3.665191354E-3
2.326999688E1,-9.773843922E-3,-2.076941729E-2,3.665191354E-3
2.329001719E1,-1.221730467E-2,-2.321287990E-2,0.000000000E0
2.331501406E1,-1.466076542E-2,-3.054326214E-2,1.221730490E-3
2.334001094E1,-1.710422710E-2,-3.665191308E-2,2.443460980E-3
2.336500781E1,-1.099557430E-2,-3.420845419E-2,-1.221730490E-3
2.339000469E1,-3.665191354E-3,-2.809980139E-2,-2.443460980E-3
2.341500000E1,-2.443460980E-3,-2.443460934E-2,-2.443460980E-3
2.343999688E1,2.443460980E-3,-2.443460934E-2,-4.886921961E-3
2.346499375E1,4.886921961E-3,-1.221730467E-2,-1.221730490E-3
2.348501563E1,2.443460980E-3,-7.330382708E-3,0.000000000E0
2.351001094E1,2.443460980E-3,-8.552113548E-3,1.221730490E-3
2.353500781E1,9.773843922E-3,-1.466076542E-2,0.000000000E0
2.356000625E1,9.773843922E-3,-7.330382708E-3,0.000000000E0
2.358500000E1,7.330382708E-3,-8.552113548E-3,0.000000000E0
2.360999844E1,1.221730490E-3,-1.832595654E-2,1.221730490E-3
2.363499375E1,-3.665191354E-3,-1.954768784E-2,2.443460980E-3
2.365501719E1,-4.886921961E-3,-1.710422710E-2,0.000000000E0
2.368001406E1,-9.773843922E-3,-1.221730467E-2,-2.443460980E-3
2.370500938E1,-6.108652335E-3,-6.108652335E-3,1.221730490E-3
2.373000625E1,-4.886921961E-3,2.443460980E-3,4.886921961E-3
2.375500156E1,-2.443460980E-3,2.443460980E-3,4.886921961E-3
2.378000000E1,-4.886921961E-3,1.099557430E-2,1.221730490E-3
2.380499531E1,-2.443460980E-3,2.443460934E-2,4.886921961E-3
2.382501719E1,2.443460980E-3,2.443460934E-2,3.665191354E-3
2.385001562E1,-2.443460980E-3,6.108652335E-3,1.221730490E-3
2.387501094E1,-7.330382708E-3,-4.886921961E-3,0.000000000E0
2.390000781E1,-6.108652335E-3,-8.552113548E-3,1.221730490E-3
2.392500312E1,0.000000000E0,9.773843922E-3,0.000000000E0
2.395000000E1,4.886921961E-3,1.466076542E-2,6.108652335E-3
2.397499688E1,0.000000000E0,4.886921961E-3,3.665191354E-3
2.399501875E1,-1.221730490E-3,8.552113548E-3,-2.443460980E-3
2.402001563E1,4.886921961E-3,1.832595654E-2,-1.221730490E-3
2.404501250E1,3.665191354E-3,2.443460980E-3,1.221730490E-3
2.407000938E1,1.221730490E-3,-1.710422710E-2,0.000000000E0
2.409500469E1,-3.665191354E-3,-9.773843922E-3,2.443460980E-3
2.412000156E1,-9.773843922E-3,-3.665191354E-3,2.443460980E-3
2.414499688E1,-1.588249579E-2,-2.443460980E-3,-1.221730490E-3
2.416999531E1,-1.466076542E-2,-4.886921961E-3,-2.443460980E-3
2.419001719E1,-4.886921961E-3,2.443460980E-3,0.000000000E0
2.421501250E1,2.443460980E-3,1.710422710E-2,3.665191354E-3
2.424000938E1,1.221730490E-3,1.466076542E-2,4.886921961E-3
2.426500625E1,-9.773843922E-3,-2.443460980E-3,3.665191354E-3
2.429000313E1,-1.221730467E-2,-7.330382708E-3,0.000000000E0
2.431499844E1,-1.099557430E-2,-6.108652335E-3,2.443460980E-3
2.433999531E1,-6.108652335E-3,-1.466076542E-2,2.443460980E-3
2.436001719E1,-2.443460980E-3,-1.710422710E-2,0.000000000E0
2.438501406E1,7.330382708E-3,-1.343903504E-2,0.000000000E0
2.441001094E1,8.552113548E-3,-1.466076542E-2,1.221730490E-3
2.443500625E1,4.886921961E-3,-1.954768784E-2,1.221730490E-3
2.446000312E1,1.221730490E-3,-1.221730467E-2,1.221730490E-3
2.448500000E1,4.886921961E-3,6.108652335E-3,0.000000000E0
2.450999688E1,-1.221730490E-3,9.773843922E-3,2.443460980E-3
2.453001875E1,-4.886921961E-3,1.099557430E-2,0.000000000E0
2.455501563E1,-7.330382708E-3,2.443460980E-3,1.221730490E-3
2.458001250E1,-1.099557430E-2,-4.886921961E-3,1.221730490E-3
2.460500781E1,-8.552113548E-3,-1.221730490E-3,1.221730490E-3
2.463000469E1,-4.886921961E-3,3.665191354E-3,-1.221730490E-3
2.465500000E1,-6.108652335E-3,8.552113548E-3,0.000000000E0
2.467999688E1,0.000000000E0,6.108652335E-3,1.221730490E-3
2.470499219E1,1.221730490E-3,0.000000000E0,1.221730490E-3
2.472501562E1,4.886921961E-3,2.443460980E-3,3.665191354E-3
2.475001250E1,1.221730490E-3,6.108652335E-3,1.221730490E-3
2.477500938E1,-3.665191354E-3,1.099557430E-2,-1.221730490E-3
2.480000625E1,-6.108652335E-3,1.221730490E-3,1.221730490E-3
2.482500156E1,-3.665191354E-3,1.221730490E-3,-2.443460980E-3
2.484999844E1,-3.665191354E-3,2.443460980E-3,-1.221730490E-3
2.487499375E1,-3.665191354E-3,-4.886921961E-3,2.443460980E-3
2.489501719E1,-2.443460980E-3,-3.665191354E-3,0.000000000E0
2.492001406E1,-2.443460980E-3,9.773843922E-3,-4.886921961E-3
2.494500938E1,-9.773843922E-3,6.108652335E-3,-1.221730490E-3
2.497000625E1,-7.330382708E-3,-1.221730467E-2,-2.443460980E-3
2.499500312E1,-3.665191354E-3,-8.552113548E-3,1.221730490E-3
2.502000000E1,-3.665191354E-3,4.886921961E-3,1.221730490E-3
2.504499531E1,-1.343903504E-2,-8.552113548E-3,0.000000000E0
2.506501719E1,-1.466076542E-2,-1.710422710E-2,-1.221730490E-3
2.509001563E1,-6.108652335E-3,-1.343903504E-2,-2.443460980E-3
2.511501094E1,-8.552113548E-3,-1.099557430E-2,1.221730490E-3
2.514000781E1,-7.330382708E-3,-2.199114859E-2,0.000000000E0
2.516500313E1,-7.330382708E-3,-2.565634064E-2,-2.443460980E-3
2.519000156E1,-4.886921961E-3,-1.466076542E-2,-2.443460980E-3
2.521499688E1,3.665191354E-3,-9.773843922E-3,-3.665191354E-3
2.523999375E1,8.552113548E-3,-1.343903504E-2,-2.443460980E-3
2.526001562E1,6.108652335E-3,-7.330382708E-3,-3.665191354E-3
2.528501250E1,6.108652335E-3,3.665191354E-3,-3.665191354E-3
2.531000938E1,6.108652335E-3,2.443460980E-3,0.000000000E0
2.533500469E1,7.330382708E-3,1.221730490E-3,0.000000000E0
2.536000156E1,4.886921961E-3,8.552113548E-3,1.221730490E-3
2.538499844E1,7.330382708E-3,6.108652335E-3,2.443460980E-3
2.540999531E1,7.330382708E-3,-3.665191354E-3,0.000000000E0
2.543001719E1,2.443460980E-3,-8.552113548E-3,-1.221730490E-3
2.545501406E1,-1.221730490E-3,-7.330382708E-3,-2.443460980E-3
2.548001094E1,0.000000000E0,-7.330382708E-3,0.000000000E0
2.550500625E1,4.886921961E-3,-4.886921961E-3,1.221730490E-3
2.553000312E1,6.108652335E-3,6.108652335E-3,1.221730490E-3
2.555499844E1,6.108652335E-3,7.330382708E-3,2.443460980E-3
2.557999531E1,2.443460980E-3,6.108652335E-3,0.000000000E0
2.560001875E1,6.108652335E-3,1.099557430E-2,2.443460980E-3
2.562501406E1,3.665191354E-3,1.099557430E-2,2.443460980E-3
2.565001094E1,0.000000000E0,2.443460980E-3,1.221730490E-3
2.567500781E1,-3.665191354E-3,2.443460980E-3,2.443460980E-3
2.570000313E1,-2.443460980E-3,8.552113548E-3,1.221730490E-3
2.572500000E1,3.665191354E-3,1.099557430E-2,1.221730490E-3
2.574999688E1,3.665191354E-3,4.886921961E-3,0.000000000E0
2.577001875E1,-2.443460980E-3,3.665191354E-3,-2.443460980E-3
2.579501562E1,2.443460980E-3,1.099557430E-2,0.000000000E0
2.582001250E1,4.886921961E-3,3.665191354E-3,1.221730490E-3
2.584500781E1,2.443460980E-3,-7.330382708E-3,0.000000000E0
2.587000625E1,-1.221730490E-3,-2.443460980E-3,3.665191354E-3
2.589500156E1,-1.221730490E-3,1.221730490E-3,2.443460980E-3
2.591999844E1,-3.665191354E-3,2.443460980E-3,-1.221730490E-3
2.594499375E1,-3.665191354E-3,-4.886921961E-3,-1.221730490E-3
2.596501563E1,-3.665191354E-3,-8.552113548E-3,-2.443460980E-3
2.599001250E1,-1.221730490E-3,-8.552113548E-3,-4.886921961E-3
2.601500938E1,0.000000000E0,4.886921961E-3,-1.099557430E-2
2.604000625E1,-1.832595654E-2,1.710422710E-2,-1.343903504E-2
2.606500156E1,-2.443460934E-2,1.588249579E-2,-4.886921961E-3
2.609000000E1,-6.108652335E-3,0.000000000E0,1.343903504E-2
2.611499375E1,1.343903504E-2,-1.710422710E-2,1.466076542E-2
2.613501719E1,1.710422710E-2,-8.552113548E-3,3.665191354E-3
2.616001406E1,1.466076542E-2,2.687807009E-2,-6.108652335E-3
2.618501094E1,4.886921961E-3,3.543018550E-2,-9.773843922E-3
2.621000781E1,-3.665191354E-3,1.099557430E-2,-1.221730467E-2
2.623500313E1,0.000000000E0,2.443460980E-3,-9.773843922E-3
2.626000000E1,6.108652335E-3,1.221730490E-3,-1.099557430E-2
2.628499531E1,1.221730490E-3,2.443460980E-3,-1.710422710E-2
2.630501875E1,0.000000000E0,8.552113548E-3,-2.076941729E-2
2.633001562E1,-1.221730490E-3,8.552113548E-3,-1.343903504E-2
2.635501094E1,1.221730490E-3,-1.099557430E-2,-7.330382708E-3
2.638000781E1,2.443460980E-3,-8.552113548E-3,-9.773843922E-3
2.640500469E1,9.773843922E-3,1.343903504E-2,-7.330382708E-3
2.643000156E1,8.552113548E-3,2.199114859E-2,-8.552113548E-3
2.645499688E1,6.108652335E-3,1.832595654E-2,-6.108652335E-3
2.647999375E1,6.108652335E-3,7.330382708E-3,-4.886921961E-3
2.650001563E1,0.000000000E0,4.886921961E-3,-8.552113548E-3
2.652501250E1,7.330382708E-3,1.221730467E-2,-1.221730467E-2
2.655000938E1,6.108652335E-3,7.330382708E-3,-1.466076542E-2
2.657500469E1,3.665191354E-3,1.221730490E-3,-1.343903504E-2
2.660000312E1,9.773843922E-3,1.832595654E-2,-1.343903504E-2
2.662499844E1,4.886921961E-3,3.176499158E-2,-1.221730467E-2
2.664999531E1,-4.886921961E-3,4.276056588E-2,-9.773843922E-3
2.667001719E1,-3.665191354E-3,4.031710699E-2,-7.330382708E-3
2.669501406E1,3.665191354E-3,4.398229718E-2,-7.330382708E-3
2.672001094E1,4.886921961E-3,1.954768784E-2,-4.886921961E-3
2.674500625E1,2.443460980E-3,-1.099557430E-2,-9.773843922E-3
2.677000313E1,-1.221730490E-3,-1.588249579E-2,-8.552113548E-3
2.679499844E1,-1.221730490E-3,-1.710422710E-2,-1.221730467E-2
2.681999688E1,-3.665191354E-3,-2.321287990E-2,-9.773843922E-3
2.684001875E1,-4.886921961E-3,-3.054326214E-2,-7.330382708E-3
2.686501562E1,-4.886921961E-3,-2.199114859E-2,-4.886921961E-3
2.689001094E1,0.000000000E0,-1.221730467E-2,0.000000000E0
2.691500781E1,-1.221730490E-3,-1.710422710E-2,-2.443460980E-3
2.694000312E1,-4.886921961E-3,-2.199114859E-2,-1.588249579E-2
2.696500000E1,-3.665191354E-3,-2.443460980E-3,-1.099557430E-2
2.698999688E1,1.221730490E-3,0.000000000E0,-3.665191354E-3
2.701499219E1,-1.221730490E-3,2.443460980E-3,-1.221730490E-3
2.703501563E1,-9.773843922E-3,7.330382708E-3,0.000000000E0
2.706001250E1,-8.552113548E-3,1.099557430E-2,1.221730490E-3
2.708500781E1,-8.552113548E-3,1.466076542E-2,2.443460980E-3
2.711000625E1,-8.552113548E-3,1.466076542E-2,1.221730490E-3
2.713500156E1,-8.552113548E-3,1.466076542E-2,3.665191354E-3
2.715999844E1,-3.665191354E-3,7.330382708E-3,1.221730490E-3
2.718499375E1,-8.552113548E-3,0.000000000E0,0.000000000E0
2.720501719E1,-1.099557430E-2,-2.443460980E-3,-4.886921961E-3
2.723001406E1,-7.330382708E-3,2.443460980E-3,-2.443460980E-3
2.725500781E1,-3.665191354E-3,-6.108652335E-3,1.221730490E-3
2.728000625E1,-3.665191354E-3,-9.773843922E-3,3.665191354E-3
2.730500313E1,-3.665191354E-3,-6.108652335E-3,3.665191354E-3
2.732999844E1,-8.552113548E-3,-8.552113548E-3,4.886921961E-3
2.735499531E1,-1.221730467E-2,-1.832595654E-2,2.443460980E-3
2.737501719E1,-1.466076542E-2,-1.466076542E-2,-1.221730490E-3
2.740001406E1,-1.099557430E-2,0.000000000E0,-2.443460980E-3
2.742501094E1,-1.099557430E-2,7.330382708E-3,2.443460980E-3
2.745000781E1,-8.552113548E-3,9.773843922E-3,9.773843922E-3
2.747500312E1,-4.886921961E-3,1.588249579E-2,9.773843922E-3
2.750000000E1,-4.886921961E-3,7.330382708E-3,6.108652335E-3
2.752499688E1,-9.773843922E-3,1.221730490E-3,8.552113548E-3
2.754501875E1,-4.886921961E-3,6.108652335E-3,3.665191354E-3
2.757001563E1,-2.443460980E-3,1.221730467E-2,2.443460980E-3
2.759501094E1,-4.886921961E-3,-1.221730490E-3,0.000000000E0
2.762000938E1,-7.330382708E-3,-2.321287990E-2,2.443460980E-3
2.764500469E1,-2.443460980E-3,-2.443460934E-2,6.108652335E-3
2.767000156E1,3.665191354E-3,-1.588249579E-2,3.665191354E-3
2.769499688E1,8.552113548E-3,7.330382708E-3,4.886921961E-3
2.771999531E1,8.552113548E-3,2.321287990E-2,3.665191354E-3
2.774001719E1,6.108652335E-3,2.932153083E-2,4.886921961E-3
2.776501406E1,-1.221730490E-3,3.054326214E-2,6.108652335E-3
2.779000938E1,-6.108652335E-3,2.687807009E-2,7.330382708E-3
2.781500625E1,-4.886921961E-3,2.199114859E-2,7.330382708E-3
2.784000313E1,-8.552113548E-3,1.710422710E-2,4.886921961E-3
2.786500000E1,-1.099557430E-2,9.773843922E-3,6.108652335E-3
2.788999531E1,-7.330382708E-3,1.221730490E-3,4.886921961E-3
2.791001875E1,-7.330382708E-3,-3.665191354E-3,3.665191354E-3
2.793501406E1,-2.443460980E-3,-6.108652335E-3,-2.443460980E-3
2.796001094E1,3.665191354E-3,-8.552113548E-3,1.221730490E-3
2.798500625E1,7.330382708E-3,-2.443460980E-3,3.665191354E-3
2.801000312E1,8.552113548E-3,2.443460980E-3,4.886921961E-3
2.803500000E1,2.443460980E-3,1.221730490E-3,4.886921961E-3
2.805999688E1,0.000000000E0,1.221730490E-3,4.886921961E-3
2.808001875E1,-1.221730490E-3,4.886921961E-3,2.443460980E-3
2.810501406E1,1.221730490E-3,1.343903504E-2,-1.221730490E-3
2.813001250E1,-2.443460980E-3,1.343903504E-2,-1.221730490E-3
2.815500781E1,-2.443460980E-3,0.000000000E0,-1.221730490E-3
2.818000625E1,3.665191354E-3,-2.443460980E-3,-1.221730490E-3
2.820500000E1,8.552113548E-3,3.665191354E-3,0.000000000E0
2.822999844E1,6.108652335E-3,-4.886921961E-3,1.221730490E-3
2.825499375E1,3.665191354E-3,-1.588249579E-2,-2.443460980E-3
2.827501562E1,4.886921961E-3,-9.773843922E-3,-6.108652335E-3
2.830001406E1,6.108652335E-3,-6.108652335E-3,-2.443460980E-3
2.832500938E1,3.665191354E-3,-4.886921961E-3,-2.443460980E-3
2.835000625E1,6.108652335E-3,0.000000000E0,-1.221730490E-3
2.837500156E1,4.886921961E-3,1.099557430E-2,-3.665191354E-3
2.839999844E1,7.330382708E-3,7.330382708E-3,-3.665191354E-3
2.842499531E1,9.773843922E-3,2.443460980E-3,2.443460980E-3
2.844501719E1,6.108652335E-3,3.665191354E-3,2.443460980E-3
2.847001406E1,7.330382708E-3,9.773843922E-3,1.221730490E-3
2.849500938E1,6.108652335E-3,1.221730467E-2,-2.443460980E-3
2.852000781E1,6.108652335E-3,1.099557430E-2,-2.443460980E-3
2.854500312E1,4.886921961E-3,1.343903504E-2,1.221730490E-3
2.857000000E1,3.665191354E-3,1.710422710E-2,2.443460980E-3
2.859499531E1,3.665191354E-3,1.588249579E-2,2.443460980E-3
2.861501875E1,4.886921961E-3,9.773843922E-3,1.221730490E-3
2.864001562E1,2.443460980E-3,8.552113548E-3,-1.221730490E-3
2.866500938E1,0.000000000E0,1.588249579E-2,0.000000000E0
2.869000781E1,1.221730490E-3,1.588249579E-2,1.221730490E-3
2.871500313E1,1.221730490E-3,8.552113548E-3,1.221730490E-3
2.874000156E1,1.221730490E-3,9.773843922E-3,2.443460980E-3
2.876499688E1,0.000000000E0,1.832595654E-2,2.443460980E-3
2.878999375E1,-2.443460980E-3,1.099557430E-2,1.221730490E-3
2.881001563E1,-3.665191354E-3,2.443460980E-3,1.221730490E-3
2.883501250E1,1.221730490E-3,-3.665191354E-3,3.665191354E-3
2.886000938E1,1.221730490E-3,-6.108652335E-3,1.221730490E-3
2.888500469E1,-1.221730490E-3,-4.886921961E-3,-1.221730490E-3
2.891000156E1,-3.665191354E-3,-9.773843922E-3,0.000000000E0
2.893499844E1,-4.886921961E-3,-7.330382708E-3,2.443460980E-3
2.895999531E1,-4.886921961E-3,0.000000000E0,-2.443460980E-3
2.898001719E1,1.221730490E-3,0.000000000E0,-1.221730490E-3
2.900501406E1,0.000000000E0,-4.886921961E-3,2.443460980E-3
2.903001094E1,-4.886921961E-3,-1.343903504E-2,1.221730490E-3
2.905500625E1,-3.665191354E-3,-4.886921961E-3,-1.221730490E-3
2.908000312E1,-3.665191354E-3,-3.665191354E-3,-1.221730490E-3
2.910499844E1,-3.665191354E-3,-4.886921961E-3,-1.221730490E-3
2.912999688E1,0.000000000E0,1.221730490E-3,1.221730490E-3
2.915001875E1,3.665191354E-3,1.099557430E-2,-3.665191354E-3
2.917501406E1,-2.443460980E-3,7.330382708E-3,-1.221730490E-3
2.920001094E1,-6.108652335E-3,-1.221730467E-2,-1.221730490E-3
2.922500781E1,-6.108652335E-3,-9.773843922E-3,2.443460980E-3
2.925000469E1,-3.665191354E-3,-1.221730490E-3,3.665191354E-3
2.927500000E1,-4.886921961E-3,-6.108652335E-3,-1.221730490E-3
2.929999688E1,-1.343903504E-2,-1.099557430E-2,-2.443460980E-3
2.932499375E1,-8.552113548E-3,2.443460980E-3,-1.221730490E-3
2.934501563E1,-4.886921961E-3,1.099557430E-2,2.443460980E-3
2.937001250E1,-7.330382708E-3,-1.221730490E-3,2.443460980E-3
2.939500781E1,-6.108652335E-3,-9.773843922E-3,1.221730490E-3
2.942000625E1,-6.108652335E-3,1.221730490E-3,0.000000000E0
2.944500000E1,-6.108652335E-3,2.443460980E-3,3.665191354E-3
2.946999844E1,-3.665191354E-3,-1.343903504E-2,3.665191354E-3
2.949499375E1,-4.886921961E-3,-1.221730467E-2,0.000000000E0
2.951501562E1,-4.886921961E-3,-2.443460980E-3,0.000000000E0
2.954001406E1,-7.330382708E-3,-4.886921961E-3,-1.221730490E-3
2.956500938E1,-4.886921961E-3,-1.221730467E-2,0.000000000E0
2.959000625E1,-6.108652335E-3,-4.886921961E-3,4.886921961E-3
2.961500156E1,-1.221730490E-3,0.000000000E0,3.665191354E-3
2.963999844E1,-4.886921961E-3,-2.443460980E-3,3.665191354E-3
2.966499531E1,-8.552113548E-3,-4.886921961E-3,2.443460980E-3
2.968501719E1,-7.330382708E-3,0.000000000E0,1.221730490E-3
2.971001562E1,-7.330382708E-3,7.330382708E-3,2.443460980E-3
2.973501094E1,-9.773843922E-3,-1.221730490E-3,3.665191354E-3
2.976000781E1,-9.773843922E-3,-6.108652335E-3,3.665191354E-3
2.978500313E1,-1.099557430E-2,-1.221730490E-3,2.443460980E-3
2.981000000E1,-1.221730467E-2,-2.443460980E-3,3.665191354E-3
2.983499688E1,-9.773843922E-3,-7.330382708E-3,1.221730490E-3
2.985501875E1,-9.773843922E-3,-2.443460980E-3,1.221730490E-3
2.988001563E1,-4.886921961E-3,1.221730490E-3,2.443460980E-3
2.990501094E1,-4.886921961E-3,2.443460980E-3,4.886921961E-3
2.993000781E1,-3.665191354E-3,3.665191354E-3,4.886921961E-3
2.995500469E1,-3.665191354E-3,1.099557430E-2,4.886921961E-3
2.998000156E1,-1.099557430E-2,8.552113548E-3,1.221730490E-3
3.000499688E1,-1.099557430E-2,1.221730490E-3,2.443460980E-3
3.002999531E1,-8.552113548E-3,-3.665191354E-3,4.886921961E-3
3.005001719E1,-1.221730467E-2,-6.108652335E-3,2.443460980E-3
3.007501250E1,-1.221730467E-2,-4.886921961E-3,1.221730490E-3
3.010000938E1,-1.221730467E-2,-1.099557430E-2,3.665191354E-3
3.012500625E1,-1.099557430E-2,-1.221730467E-2,4.886921961E-3
3.015000312E1,-1.221730467E-2,-9.773843922E-3,1.221730490E-3
3.017499844E1,-1.466076542E-2,-9.773843922E-3,-1.221730490E-3
3.019999531E1,-1.221730467E-2,-1.221730467E-2,-3.665191354E-3
3.022001875E1,-6.108652335E-3,-1.466076542E-2,-1.221730490E-3
3.024501406E1,-3.665191354E-3,-1.466076542E-2,1.221730490E-3
3.027001094E1,-7.330382708E-3,-2.076941729E-2,-1.221730490E-3
3.029500625E1,-6.108652335E-3,-2.932153083E-2,-9.773843922E-3
3.032000313E1,-8.552113548E-3,-2.932153083E-2,-1.221730467E-2
3.034500000E1,2.443460980E-3,-1.099557430E-2,-1.343903504E-2
3.036999688E1,4.886921961E-3,1.588249579E-2,-6.108652335E-3
3.039001875E1,2.443460980E-3,2.809980139E-2,-6.108652335E-3
3.041501563E1,7.330382708E-3,4.031710699E-2,3.665191354E-3
3.044001250E1,1.099557430E-2,3.420845419E-2,1.099557430E-2
3.046500781E1,4.886921961E-3,1.221730467E-2,1.221730467E-2
3.049000469E1,-2.443460980E-3,-8.552113548E-3,6.108652335E-3
3.051500000E1,-6.108652335E-3,-2.565634064E-2,1.221730490E-3
3.053999688E1,-9.773843922E-3,-3.665191308E-2,-1.221730490E-3
3.056499375E1,-7.330382708E-3,-2.809980139E-2,0.000000000E0
3.058501562E1,-2.443460980E-3,-1.099557430E-2,3.665191354E-3
3.061001406E1,-4.886921961E-3,-8.552113548E-3,6.108652335E-3
3.063500938E1,-8.552113548E-3,-2.076941729E-2,7.330382708E-3
3.066000625E1,-1.221730467E-2,-1.832595654E-2,9.773843922E-3
3.068500156E1,-1.343903504E-2,-1.221730490E-3,3.665191354E-3
3.070999844E1,-2.076941729E-2,-2.443460980E-3,-1.221730490E-3
3.073499531E1,-1.832595654E-2,1.221730467E-2,0.000000000E0
3.075501719E1,-8.552113548E-3,2.565634064E-2,-1.221730490E-3
3.078001406E1,-4.886921961E-3,3.298672289E-2,3.665191354E-3
3.080501094E1,0.000000000E0,2.076941729E-2,3.665191354E-3
3.083000938E1,-1.221730490E-3,9.773843922E-3,3.665191354E-3
3.085500313E1,1.221730490E-3,8.552113548E-3,4.886921961E-3
3.088000000E1,2.443460980E-3,2.443460980E-3,2.443460980E-3
3.090499531E1,1.221730490E-3,-8.552113548E-3,-3.665191354E-3
3.092501719E1,-1.221730490E-3,-1.588249579E-2,-3.665191354E-3
3.095001563E1,-6.108652335E-3,-2.076941729E-2,0.000000000E0
3.097501094E1,-1.343903504E-2,-2.809980139E-2,1.221730490E-3
3.100000781E1,-1.343903504E-2,-2.443460934E-2,2.443460980E-3
3.102500312E1,-1.221730467E-2,-1.099557430E-2,3.665191354E-3
3.105000000E1,-9.773843922E-3,3.665191354E-3,1.221730490E-3
3.107499688E1,-2.443460980E-3,1.832595654E-2,-1.221730490E-3
3.109999375E1,-3.665191354E-3,1.832595654E-2,1.221730490E-3
3.112001562E1,-7.330382708E-3,8.552113548E-3,4.886921961E-3
3.114501250E1,-1.099557430E-2,0.000000000E0,7.330382708E-3
3.117000938E1,-8.552113548E-3,4.886921961E-3,4.886921961E-3
3.119500469E1,-9.773843922E-3,-7.330382708E-3,2.443460980E-3
3.122000156E1,-7.330382708E-3,-1.343903504E-2,1.221730490E-3
3.124499688E1,-4.886921961E-3,-9.773843922E-3,1.221730490E-3
3.126999531E1,-1.099557430E-2,-9.773843922E-3,2.443460980E-3
3.129001719E1,-1.221730467E-2,-6.108652335E-3,1.221730490E-3
3.131501406E1,-7.330382708E-3,-6.108652335E-3,2.443460980E-3
3.134001094E1,-6.108652335E-3,-6.108652335E-3,3.665191354E-3
3.136500625E1,-9.773843922E-3,-8.552113548E-3,1.221730490E-3
3.139000313E1,-9.773843922E-3,-1.221730467E-2,0.000000000E0
3.141499844E1,-9.773843922E-3,-7.330382708E-3,1.221730490E-3
3.143999531E1,-7.330382708E-3,-3.665191354E-3,-3.665191354E-3
3.146001719E1,-6.108652335E-3,-4.886921961E-3,-3.665191354E-3
3.148501406E1,-3.665191354E-3,-7.330382708E-3,0.000000000E0
3.151001094E1,0.000000000E0,-1.221730490E-3,2.443460980E-3
3.153500781E1,1.221730490E-3,6.108652335E-3,4.886921961E-3
3.156000312E1,-4.886921961E-3,-7.330382708E-3,6.108652335E-3
3.158500000E1,-2.443460980E-3,-1.343903504E-2,1.221730490E-3
3.160999688E1,-2.443460980E-3,-3.665191354E-3,-2.443460980E-3
3.163001875E1,-2.443460980E-3,-7.330382708E-3,-2.443460980E-3
3.165501562E1,-4.886921961E-3,-1.832595654E-2,-3.665191354E-3
3.168001250E1,-3.665191354E-3,-2.076941729E-2,1.221730490E-3
3.170500781E1,0.000000000E0,-1.221730467E-2,2.443460980E-3
3.173000469E1,1.221730490E-3,-7.330382708E-3,2.443460980E-3
3.175500156E1,2.443460980E-3,-1.221730490E-3,1.221730490E-3
3.177999844E1,4.886921961E-3,1.343903504E-2,1.221730490E-3
3.180499375E1,1.221730490E-3,1.710422710E-2,0.000000000E0
3.182501563E1,-1.221730490E-3,8.552113548E-3,1.221730490E-3
3.185001406E1,-2.443460980E-3,-2.443460980E-3,0.000000000E0
3.187500938E1,-2.443460980E-3,6.108652335E-3,0.000000000E0
3.190000625E1,-1.221730490E-3,1.099557430E-2,1.221730490E-3
3.192500156E1,1.221730490E-3,1.343903504E-2,2.443460980E-3
3.194999844E1,1.221730490E-3,4.886921961E-3,2.443460980E-3
3.197499531E1,-2.443460980E-3,-6.108652335E-3,1.221730490E-3
3.199501719E1,-2.443460980E-3,-7.330382708E-3,0.000000000E0
3.202001406E1,-3.665191354E-3,-6.108652335E-3,-1.221730490E-3
3.204501094E1,-2.443460980E-3,-8.552113548E-3,-1.221730490E-3
3.207000781E1,-2.443460980E-3,-1.099557430E-2,1.221730490E-3
3.209500313E1,-1.221730490E-3,-1.221730467E-2,0.000000000E0
3.212000000E1,-2.443460980E-3,-1.221730490E-3,-1.221730490E-3
3.214499531E1,-1.221730490E-3,7.330382708E-3,0.000000000E0
3.216501875E1,0.000000000E0,3.665191354E-3,2.443460980E-3
3.219001562E1,-1.221730490E-3,-4.886921961E-3,2.443460980E-3
3.221501094E1,-4.886921961E-3,-1.221730490E-3,0.000000000E0
3.224000781E1,-3.665191354E-3,2.443460980E-3,1.221730490E-3
3.226500469E1,-1.221730490E-3,-2.443460980E-3,2.443460980E-3
3.229000156E1,-3.665191354E-3,-1.343903504E-2,0.000000000E0
3.231499688E1,-2.443460980E-3,-7.330382708E-3,-1.221730490E-3
3.233999375E1,-2.443460980E-3,1.099557430E-2,1.221730490E-3
3.236001719E1,-4.886921961E-3,1.343903504E-2,4.886921961E-3
3.238501250E1,-3.665191354E-3,1.221730490E-3,6.108652335E-3
3.241000938E1,-1.221730490E-3,-1.099557430E-2,2.443460980E-3
3.243500469E1,-3.665191354E-3,-1.099557430E-2,0.000000000E0
3.246000156E1,-3.665191354E-3,-7.330382708E-3,-3.665191354E-3
3.248499844E1,0.000000000E0,4.886921961E-3,-2.443460980E-3
3.250999531E1,-3.665191354E-3,1.221730490E-3,1.221730490E-3
3.253002344E1,-1.221730490E-3,-4.886921961E-3,3.665191354E-3
3.255501406E1,-3.665191354E-3,-1.221730490E-3,6.108652335E-3
3.257504219E1,-7.330382708E-3,-2.443460980E-3,3.665191354E-3
3.260000156E1,-1.221730467E-2,-6.108652335E-3,0.000000000E0
3.262499688E1,-8.552113548E-3,-4.886921961E-3,-1.221730490E-3
3.264999375E1,-4.886921961E-3,1.221730490E-3,-1.221730490E-3
3.267001719E1,-3.665191354E-3,3.665191354E-3,0.000000000E0
3.269501250E1,-7.330382708E-3,-7.330382708E-3,0.000000000E0
3.272000938E1,-8.552113548E-3,-8.552113548E-3,3.665191354E-3
3.274500469E1,-7.330382708E-3,-3.665191354E-3,2.443460980E-3
3.277000312E1,-3.665191354E-3,1.221730490E-3,1.221730490E-3
3.279499844E1,-2.443460980E-3,-2.443460980E-3,-1.221730490E-3
3.281999531E1,-4.886921961E-3,-7.330382708E-3,2.443460980E-3
3.284001719E1,-4.886921961E-3,1.221730490E-3,2.443460980E-3
3.286501406E1,-7.330382708E-3,6.108652335E-3,2.443460980E-3
3.289001094E1,-1.099557430E-2,1.221730490E-3,3.665191354E-3
3.291500625E1,-9.773843922E-3,-3.665191354E-3,3.665191354E-3
3.294000313E1,-9.773843922E-3,-3.665191354E-3,4.886921961E-3
3.296500000E1,-1.099557430E-2,-3.665191354E-3,1.221730490E-3
3.298999688E1,-1.466076542E-2,-6.108652335E-3,1.221730490E-3
3.301001875E1,-1.221730467E-2,-1.343903504E-2,1.221730490E-3
3.303501406E1,-1.221730467E-2,-6.108652335E-3,3.665191354E-3
3.306001250E1,-1.221730467E-2,-6.108652335E-3,4.886921961E-3
3.308500781E1,-8.552113548E-3,-1.343903504E-2,4.886921961E-3
3.311000469E1,-8.552113548E-3,-2.076941729E-2,1.221730490E-3
3.313500000E1,-1.466076542E-2,-1.466076542E-2,-2.443460980E-3
3.315999688E1,-1.221730467E-2,-1.099557430E-2,-3.665191354E-3
3.318499375E1,-9.773843922E-3,-1.343903504E-2,0.000000000E0
3.320501562E1,-1.099557430E-2,-1.588249579E-2,-1.221730490E-3
3.323001250E1,-9.773843922E-3,-8.552113548E-3,0.000000000E0
3.325500938E1,-7.330382708E-3,-7.330382708E-3,0.000000000E0
3.328000625E1,-4.886921961E-3,-9.773843922E-3,0.000000000E0
3.330500156E1,-7.330382708E-3,-4.886921961E-3,-2.443460980E-3
3.332999844E1,-7.330382708E-3,1.221730490E-3,-1.221730490E-3
3.335499375E1,-8.552113548E-3,-3.665191354E-3,0.000000000E0
3.337501719E1,-8.552113548E-3,-8.552113548E-3,-2.443460980E-3
3.340001406E1,-8.552113548E-3,-8.552113548E-3,-1.221730490E-3
3.342500938E1,-7.330382708E-3,-1.710422710E-2,-3.665191354E-3
3.345000781E1,-7.330382708E-3,-2.199114859E-2,-1.221730490E-3
3.347500312E1,-8.552113548E-3,-3.054326214E-2,3.665191354E-3
3.350000000E1,-8.552113548E-3,-3.665191308E-2,1.221730490E-3
3.352499531E1,-8.552113548E-3,-3.176499158E-2,-1.221730490E-3
3.354501719E1,-1.343903504E-2,-3.176499158E-2,-1.221730490E-3
3.357001562E1,-2.076941729E-2,-2.809980139E-2,-3.665191354E-3
3.359501094E1,-2.565634064E-2,-1.954768784E-2,1.221730490E-3
3.362000781E1,-2.076941729E-2,-1.954768784E-2,7.330382708E-3
3.364500312E1,-2.076941729E-2,-2.076941729E-2,4.886921961E-3
3.367000000E1,-1.099557430E-2,-1.343903504E-2,-3.665191354E-3
3.369499688E1,-1.221730490E-3,-1.221730467E-2,0.000000000E0
3.371999375E1,2.443460980E-3,-1.710422710E-2,1.221730490E-3
3.374001563E1,6.108652335E-3,-1.221730467E-2,2.443460980E-3
3.376501250E1,1.221730490E-3,-3.665191354E-3,0.000000000E0
3.379000938E1,-8.552113548E-3,-1.343903504E-2,2.443460980E-3
3.381500469E1,-1.710422710E-2,-2.321287990E-2,3.665191354E-3
3.384000156E1,-1.710422710E-2,-1.343903504E-2,2.443460980E-3
3.386499688E1,-1.466076542E-2,-6.108652335E-3,2.443460980E-3
3.388999531E1,-1.466076542E-2,-2.199114859E-2,2.443460980E-3
3.391001719E1,-1.221730467E-2,-2.687807009E-2,4.886921961E-3
3.393501250E1,-7.330382708E-3,-1.710422710E-2,6.108652335E-3
3.396000938E1,-8.552113548E-3,-1.466076542E-2,4.886921961E-3
3.398500625E1,-1.588249579E-2,-2.443460934E-2,6.108652335E-3
3.401000313E1,-1.832595654E-2,-1.954768784E-2,6.108652335E-3
3.403499844E1,-1.588249579E-2,2.443460980E-3,4.886921961E-3
3.405999688E1,-1.954768784E-2,6.108652335E-3,4.886921961E-3
3.408001875E1,-1.832595654E-2,-2.443460980E-3,6.108652335E-3
3.410501406E1,-1.466076542E-2,-3.665191354E-3,1.099557430E-2
3.413001094E1,-1.221730467E-2,1.221730467E-2,1.099557430E-2
3.415500781E1,-6.108652335E-3,1.343903504E-2,9.773843922E-3
3.418000312E1,-1.221730467E-2,1.710422710E-2,6.108652335E-3
3.420500000E1,-1.221730467E-2,2.565634064E-2,7.330382708E-3
3.422999688E1,-8.552113548E-3,3.298672289E-2,1.099557430E-2
3.425001875E1,-7.330382708E-3,2.443460934E-2,1.221730467E-2
3.427501406E1,-1.343903504E-2,2.199114859E-2,1.099557430E-2
3.430001250E1,-9.773843922E-3,3.054326214E-2,8.552113548E-3
3.432500781E1,-7.330382708E-3,5.009094998E-2,8.552113548E-3
3.435000469E1,-4.886921961E-3,6.108652428E-2,1.221730467E-2
3.437500156E1,-6.108652335E-3,6.597344577E-2,1.588249579E-2
3.439999844E1,0.000000000E0,5.131268129E-2,2.076941729E-2
3.442499375E1,3.176499158E-2,4.642575979E-2,1.588249579E-2
3.444501562E1,3.298672289E-2,6.230825558E-2,9.773843922E-3
3.447001250E1,3.665191354E-3,5.497787148E-2,-3.665191354E-3
3.449500938E1,-4.886921961E-3,3.787364438E-2,-8.552113548E-3
3.452000625E1,-2.443460980E-3,4.398229718E-2,2.443460980E-3
3.454500156E1,0.000000000E0,6.597344577E-2,1.466076542E-2
3.457000000E1,1.221730467E-2,7.941248268E-2,2.443460934E-2
3.459499531E1,1.954768784E-2,6.841690838E-2,2.321287990E-2
3.461501719E1,1.832595654E-2,6.475171447E-2,1.221730467E-2
3.464001406E1,8.552113548E-3,7.330382615E-2,1.221730467E-2
3.466501094E1,0.000000000E0,9.773843735E-2,1.954768784E-2
3.469000781E1,2.443460980E-3,1.221730486E-1,1.221730467E-2
3.471500312E1,4.886921961E-3,1.612684280E-1,4.886921961E-3
3.473999844E1,1.099557430E-2,1.832595766E-1,1.466076542E-2
3.476499531E1,3.909537569E-2,1.637118906E-1,3.543018550E-2
3.478501875E1,6.963863969E-2,1.246165112E-1,4.520402849E-2
3.481001563E1,8.307766914E-2,6.719517708E-2,5.253440887E-2
3.483501094E1,8.063421398E-2,-2.199114859E-2,2.687807009E-2
3.486000938E1,6.475171447E-2,-8.674286306E-2,-1.588249579E-2
3.488500313E1,4.886921868E-2,-1.295034289E-1,-4.398229718E-2
3.491000156E1,4.031710699E-2,-1.026253626E-1,-3.298672289E-2
3.493499688E1,4.276056588E-2,-2.809980139E-2,-1.343903504E-2
3.495999375E1,4.764748737E-2,4.886921961E-3,2.443460980E-3
3.498001562E1,5.864306167E-2,2.443460980E-3,1.099557430E-2
3.500501250E1,6.963863969E-2,-9.773843922E-3,1.221730467E-2
3.503000781E1,5.986479297E-2,0.000000000E0,2.443460980E-3
3.505500469E1,5.619960278E-2,1.832595654E-2,-1.221730467E-2
3.508000156E1,6.352998316E-2,2.809980139E-2,-1.710422710E-2
3.510499844E1,6.841690838E-2,3.909537569E-2,-9.773843922E-3
3.512999531E1,7.941248268E-2,7.452555746E-2,-8.552113548E-3
3.515001719E1,8.552113175E-2,1.087340117E-1,-4.886921961E-3
3.517501406E1,6.719517708E-2,1.551597714E-1,-1.099557430E-2
3.520000938E1,5.619960278E-2,1.869247556E-1,-3.420845419E-2
3.522500469E1,5.864306167E-2,2.003637999E-1,-3.665191308E-2
3.525000312E1,6.230825558E-2,1.820378453E-1,-2.687807009E-2
3.527500000E1,5.131268129E-2,1.136209369E-1,-7.330382708E-3
3.529999688E1,5.009094998E-2,8.063421398E-2,-7.330382708E-3
3.532001875E1,6.597344577E-2,9.773843735E-2,-4.886921961E-3
3.534501406E1,5.864306167E-2,1.197295859E-1,-1.221730490E-3
3.537001250E1,5.131268129E-2,1.502728462E-1,2.443460980E-3
3.539500781E1,5.986479297E-2,1.270599663E-1,3.665191354E-3
3.542000469E1,6.352998316E-2,8.552113175E-2,0.000000000E0
3.544500000E1,4.886921868E-2,6.841690838E-2,3.665191354E-3
3.546999688E1,4.764748737E-2,6.108652428E-2,3.665191354E-3
3.549499375E1,3.787364438E-2,2.809980139E-2,3.420845419E-2
3.551501563E1,3.543018550E-2,-7.330382708E-3,6.230825558E-2
3.554001250E1,3.543018550E-2,-3.787364438E-2,7.574728876E-2
3.556500781E1,2.076941729E-2,-1.209513173E-1,6.352998316E-2
3.559000625E1,8.552113548E-3,-1.954768747E-1,2.443460934E-2
3.561500156E1,6.108652335E-3,-2.125810981E-1,-1.588249579E-2
3.563999844E1,3.665191354E-3,-1.600466967E-1,-3.665191308E-2
3.566499375E1,1.588249579E-2,-8.796459436E-2,-1.832595654E-2
3.568501719E1,3.543018550E-2,-7.452555746E-2,1.343903504E-2
3.571001406E1,5.497787148E-2,-7.819075137E-2,3.909537569E-2
3.573500938E1,3.420845419E-2,-8.063421398E-2,3.054326214E-2
3.576000625E1,1.221730467E-2,-7.941248268E-2,1.466076542E-2
3.578500156E1,-1.221730467E-2,-1.014036313E-1,7.330382708E-3
3.581000000E1,-1.832595654E-2,-1.380555481E-1,0.000000000E0
3.583499531E1,-1.221730467E-2,-1.527163088E-1,-7.330382708E-3
3.585501719E1,-1.221730467E-2,-1.417207420E-1,-4.886921961E-3
3.588001563E1,-1.466076542E-2,-1.295034289E-1,0.000000000E0
3.590501094E1,-1.588249579E-2,-1.075122803E-1,9.773843922E-3
3.593000781E1,-6.108652335E-3,-9.651670605E-2,1.466076542E-2
3.595500313E1,-1.099557430E-2,-1.014036313E-1,1.221730467E-2
3.598000000E1,-3.420845419E-2,-1.111774743E-1,-2.443460980E-3
3.600499531E1,-4.764748737E-2,-1.221730486E-1,-2.443460980E-3
3.602501875E1,-3.787364438E-2,-1.404990107E-1,1.221730490E-3
3.605001406E1,-2.932153083E-2,-1.490511149E-1,-1.221730490E-3
3.607501250E1,-2.565634064E-2,-1.466076523E-1,-9.773843922E-3
3.610000938E1,-1.832595654E-2,-1.319468915E-1,-1.221730467E-2
3.612500469E1,-1.466076542E-2,-1.148426607E-1,-1.099557430E-2
3.615000156E1,-2.443460980E-3,-1.050688177E-1,-1.099557430E-2
3.617499688E1,3.665191354E-3,-7.330382615E-2,0.000000000E0
3.619999531E1,-1.221730490E-3,-6.230825558E-2,9.773843922E-3
3.622001719E1,-7.330382708E-3,-5.253440887E-2,1.221730467E-2
3.624501250E1,-2.321287990E-2,-3.787364438E-2,9.773843922E-3
3.627000938E1,-3.176499158E-2,-3.176499158E-2,1.221730490E-3
3.629500625E1,-3.909537569E-2,-2.565634064E-2,-2.443460980E-3
3.632000312E1,-4.276056588E-2,-4.031710699E-2,-1.221730490E-3
3.634499844E1,-5.131268129E-2,-6.352998316E-2,0.000000000E0
3.636999531E1,-5.131268129E-2,-8.429940045E-2,1.221730490E-3
3.639001875E1,-5.375614017E-2,-9.651670605E-2,3.665191354E-3
3.641501406E1,-5.253440887E-2,-9.285151958E-2,4.886921961E-3
3.644001094E1,-5.009094998E-2,-7.941248268E-2,2.443460980E-3
3.646500781E1,-5.009094998E-2,-5.986479297E-2,0.000000000E0
3.649000312E1,-3.787364438E-2,-3.909537569E-2,-8.552113548E-3
3.651500000E1,-1.954768784E-2,4.886921961E-3,-1.343903504E-2
3.653999688E1,-9.773843922E-3,3.054326214E-2,-2.443460980E-3
3.656001875E1,-7.330382708E-3,3.787364438E-2,0.000000000E0
3.658501406E1,-4.886921961E-3,5.253440887E-2,-2.443460980E-3
3.661001250E1,-2.199114859E-2,6.963863969E-2,-7.330382708E-3
3.663500781E1,-3.420845419E-2,6.352998316E-2,-1.221730467E-2
3.666000469E1,-4.153883457E-2,4.764748737E-2,-9.773843922E-3
3.668500000E1,-4.031710699E-2,4.642575979E-2,-4.886921961E-3
3.670999844E1,-4.031710699E-2,5.009094998E-2,1.221730490E-3
3.673499375E1,-4.398229718E-2,8.552113548E-3,1.221730490E-3
3.675501563E1,-4.520402849E-2,-2.809980139E-2,-1.221730490E-3
3.678001250E1,-4.642575979E-2,-5.986479297E-2,-9.773843922E-3
3.680500938E1,-4.031710699E-2,-5.742133036E-2,-1.466076542E-2
3.683000625E1,-3.176499158E-2,-4.276056588E-2,-2.076941729E-2
3.685500156E1,-1.954768784E-2,-1.588249579E-2,-1.588249579E-2
3.687999844E1,-1.221730467E-2,3.665191354E-3,0.000000000E0
3.690499531E1,-1.343903504E-2,2.076941729E-2,1.099557430E-2
3.692501719E1,-2.199114859E-2,3.787364438E-2,1.099557430E-2
3.695001406E1,-2.687807009E-2,5.497787148E-2,6.108652335E-3
3.697500938E1,-3.543018550E-2,4.398229718E-2,-1.221730490E-3
3.700000781E1,-4.153883457E-2,3.298672289E-2,-8.552113548E-3
3.702500313E1,-4.031710699E-2,4.153883457E-2,-9.773843922E-3
3.705000000E1,-3.909537569E-2,4.642575979E-2,-1.221730467E-2
3.707499531E1,-2.687807009E-2,5.131268129E-2,-1.343903504E-2
3.709501719E1,-1.221730467E-2,5.375614017E-2,-9.773843922E-3
3.712001562E1,3.665191354E-3,5.864306167E-2,-2.443460980E-3
3.714501094E1,1.832595654E-2,5.253440887E-2,7.330382708E-3
3.717000781E1,2.199114859E-2,3.665191308E-2,9.773843922E-3
3.719500312E1,1.832595654E-2,2.321287990E-2,3.665191354E-3
3.722000000E1,0.000000000E0,1.099557430E-2,2.443460980E-3
3.724499688E1,-1.588249579E-2,-1.588249579E-2,-2.443460980E-3
3.726999375E1,-2.687807009E-2,-2.687807009E-2,-7.330382708E-3
3.729001719E1,-2.565634064E-2,-3.298672289E-2,-3.665191354E-3
3.731501250E1,-1.954768784E-2,-4.153883457E-2,1.221730490E-3
3.734000938E1,-3.665191354E-3,-3.054326214E-2,-2.443460980E-3
3.736500625E1,-7.330382708E-3,-1.710422710E-2,-8.552113548E-3
3.739000312E1,-9.773843922E-3,-1.343903504E-2,-6.108652335E-3
3.741499844E1,-1.466076542E-2,-1.832595654E-2,3.665191354E-3
3.743999531E1,-7.330382708E-3,-1.832595654E-2,6.108652335E-3
3.746001719E1,-2.443460980E-3,-1.466076542E-2,4.886921961E-3
3.748501406E1,1.221730490E-3,-1.954768784E-2,-1.221730490E-3
3.751001094E1,3.665191354E-3,-1.588249579E-2,0.000000000E0
3.753500625E1,-2.443460980E-3,-6.108652335E-3,-1.221730490E-3
3.756000312E1,-3.665191354E-3,-4.886921961E-3,-3.665191354E-3
3.758001406E1,-3.665191354E-3,-4.886921961E-3,-4.886921961E-3
3.760001563E1,-2.443460980E-3,-6.108652335E-3,-7.330382708E-3
3.762501250E1,4.886921961E-3,-9.773843922E-3,-8.552113548E-3
3.765000938E1,4.886921961E-3,-1.588249579E-2,-1.221730490E-3
3.767500625E1,3.665191354E-3,-3.176499158E-2,0.000000000E0
3.770000312E1,-1.221730490E-3,-3.543018550E-2,-4.886921961E-3
3.772499844E1,1.221730490E-3,-1.343903504E-2,-3.665191354E-3
3.774999531E1,1.099557430E-2,3.665191354E-3,-4.886921961E-3
3.777001719E1,1.588249579E-2,1.832595654E-2,-3.665191354E-3
3.779501406E1,1.832595654E-2,2.199114859E-2,-2.443460980E-3
3.782001094E1,8.552113548E-3,1.588249579E-2,1.221730490E-3
3.784500625E1,3.665191354E-3,6.108652335E-3,-2.443460980E-3
3.787000313E1,4.886921961E-3,-7.330382708E-3,-3.665191354E-3
3.789499844E1,4.886921961E-3,-7.330382708E-3,-2.443460980E-3
3.791999531E1,6.108652335E-3,4.886921961E-3,-4.886921961E-3
3.794001875E1,7.330382708E-3,1.343903504E-2,-6.108652335E-3
3.796501406E1,2.443460980E-3,8.552113548E-3,0.000000000E0
3.799001094E1,6.108652335E-3,-1.221730490E-3,-2.443460980E-3
3.801500781E1,7.330382708E-3,1.466076542E-2,-1.221730490E-3
3.804000469E1,1.099557430E-2,2.321287990E-2,-1.221730490E-3
3.806500000E1,7.330382708E-3,1.832595654E-2,-1.221730490E-3
3.808999688E1,3.665191354E-3,7.330382708E-3,-2.443460980E-3
3.811499375E1,-1.221730490E-3,1.343903504E-2,-1.221730490E-3
3.813501562E1,1.221730490E-3,1.832595654E-2,-3.665191354E-3
3.816001250E1,2.443460980E-3,9.773843922E-3,-1.221730490E-3
3.818500781E1,1.221730490E-3,2.443460980E-3,-2.443460980E-3
3.821000625E1,4.886921961E-3,1.099557430E-2,-3.665191354E-3
3.823500000E1,4.886921961E-3,2.076941729E-2,-4.886921961E-3
3.825999844E1,-1.221730490E-3,1.710422710E-2,-1.221730490E-3
3.828499531E1,0.000000000E0,1.954768784E-2,-1.221730490E-3
3.830501562E1,2.443460980E-3,3.298672289E-2,-1.221730490E-3
3.833001406E1,-1.221730490E-3,4.276056588E-2,-6.108652335E-3
3.835500938E1,-4.886921961E-3,2.809980139E-2,-1.221730490E-3
3.837503125E1,-6.108652335E-3,8.552113548E-3,-1.221730490E-3
3.839999688E1,-1.343903504E-2,8.552113548E-3,-1.221730490E-3
3.842499375E1,-1.343903504E-2,2.443460980E-3,-1.221730490E-3
3.844501562E1,-9.773843922E-3,-1.099557430E-2,2.443460980E-3
3.847001250E1,2.443460980E-3,-2.076941729E-2,0.000000000E0
3.849500781E1,8.552113548E-3,-1.099557430E-2,2.443460980E-3
3.852000625E1,-2.443460980E-3,-1.099557430E-2,3.665191354E-3
3.854500156E1,-2.321287990E-2,-1.832595654E-2,-1.221730490E-3
3.856999844E1,-2.565634064E-2,1.588249579E-2,-1.221730490E-3
3.859499375E1,-1.343903504E-2,4.276056588E-2,-1.221730490E-3
3.861501719E1,-1.221730490E-3,3.054326214E-2,2.443460980E-3
3.864001406E1,7.330382708E-3,9.773843922E-3,4.886921961E-3
3.866500938E1,1.221730467E-2,3.665191354E-3,2.443460980E-3
3.869000625E1,6.108652335E-3,8.552113548E-3,-2.443460980E-3
3.871500156E1,1.221730490E-3,2.076941729E-2,-3.665191354E-3
3.873999844E1,8.552113548E-3,2.565634064E-2,-2.443460980E-3
3.876499531E1,7.330382708E-3,1.832595654E-2,-2.443460980E-3
3.878501719E1,4.886921961E-3,3.665191354E-3,-1.221730490E-3
3.881001563E1,1.221730490E-3,2.443460980E-3,3.665191354E-3
3.883501094E1,-1.221730490E-3,0.000000000E0,2.443460980E-3
3.886000781E1,-3.665191354E-3,-8.552113548E-3,-2.443460980E-3
3.888500313E1,-7.330382708E-3,-1.343903504E-2,-4.886921961E-3
3.891000000E1,-2.443460980E-3,-6.108652335E-3,-1.221730490E-3
3.893499688E1,-2.443460980E-3,-4.886921961E-3,0.000000000E0
3.895501875E1,-6.108652335E-3,-1.099557430E-2,0.000000000E0
3.898001562E1,-4.886921961E-3,-2.199114859E-2,1.221730490E-3
3.900501094E1,0.000000000E0,-1.954768784E-2,-2.443460980E-3
3.903000938E1,-2.443460980E-3,-1.099557430E-2,-1.221730490E-3
3.905500469E1,-4.886921961E-3,-1.221730467E-2,-1.221730490E-3
3.908000156E1,-6.108652335E-3,-1.221730467E-2,-3.665191354E-3
3.910499688E1,-6.108652335E-3,-1.466076542E-2,-2.443460980E-3
3.912999375E1,-6.108652335E-3,-2.076941729E-2,-2.443460980E-3
3.915001719E1,-3.665191354E-3,-1.954768784E-2,-1.221730490E-3
3.917501250E1,-1.221730490E-3,-2.443460934E-2,-1.221730490E-3
3.920000938E1,-1.221730490E-3,-3.054326214E-2,-3.665191354E-3
3.922500625E1,3.665191354E-3,-3.298672289E-2,-6.108652335E-3
3.925000312E1,3.665191354E-3,-3.054326214E-2,-4.886921961E-3
3.927499844E1,1.221730490E-3,-1.343903504E-2,-1.221730490E-3
3.929999531E1,1.221730490E-3,3.665191354E-3,1.221730490E-3
3.932001719E1,2.443460980E-3,8.552113548E-3,2.443460980E-3
3.934501406E1,-1.221730490E-3,2.443460980E-3,2.443460980E-3
3.937001094E1,-2.443460980E-3,1.099557430E-2,0.000000000E0
3.939500625E1,-1.221730490E-3,1.343903504E-2,0.000000000E0
3.942000312E1,-2.443460980E-3,9.773843922E-3,-2.443460980E-3
3.944500000E1,2.443460980E-3,1.710422710E-2,0.000000000E0
3.946999688E1,4.886921961E-3,1.588249579E-2,3.665191354E-3
3.949001875E1,8.552113548E-3,2.321287990E-2,3.665191354E-3
3.951501406E1,8.552113548E-3,3.420845419E-2,2.443460980E-3
3.954001250E1,7.330382708E-3,3.054326214E-2,2.443460980E-3
3.956500781E1,3.665191354E-3,2.443460934E-2,2.443460980E-3
3.959000469E1,2.443460980E-3,2.199114859E-2,-1.221730490E-3
3.961500000E1,2.443460980E-3,1.832595654E-2,0.000000000E0
3.963999844E1,1.221730490E-3,8.552113548E-3,-1.221730490E-3
3.966499375E1,2.443460980E-3,9.773843922E-3,0.000000000E0
3.968501563E1,1.221730490E-3,9.773843922E-3,0.000000000E0
3.971001250E1,4.886921961E-3,6.108652335E-3,1.221730490E-3
3.973500938E1,4.886921961E-3,3.665191354E-3,0.000000000E0
3.976000625E1,2.443460980E-3,9.773843922E-3,1.221730490E-3
3.978500156E1,0.000000000E0,6.108652335E-3,1.221730490E-3
3.980999844E1,2.443460980E-3,1.221730490E-3,-1.221730490E-3
3.983499375E1,-1.221730490E-3,-4.886921961E-3,0.000000000E0
3.985501719E1,-1.221730490E-3,-7.330382708E-3,1.221730490E-3
3.988001406E1,0.000000000E0,-2.443460980E-3,-1.221730490E-3
3.990500938E1,3.665191354E-3,1.221730467E-2,0.000000000E0
3.993000625E1,1.099557430E-2,8.552113548E-3,2.443460980E-3
3.995500313E1,9.773843922E-3,-6.108652335E-3,2.443460980E-3
3.998000000E1,0.000000000E0,-1.588249579E-2,3.665191354E-3
4.000499531E1,0.000000000E0,-8.552113548E-3,1.221730490E-3
4.002501875E1,0.000000000E0,-2.443460980E-3,1.221730490E-3
4.005001562E1,-1.221730490E-3,-4.886921961E-3,-3.665191354E-3
4.007501094E1,1.221730490E-3,-4.886921961E-3,-1.221730490E-3
4.010000781E1,1.221730490E-3,4.886921961E-3,2.443460980E-3
4.012500469E1,1.221730490E-3,1.099557430E-2,2.443460980E-3
4.015000156E1,-2.443460980E-3,2.443460980E-3,1.221730490E-3
4.017499688E1,-2.443460980E-3,-3.665191354E-3,-1.221730490E-3
4.019999375E1,0.000000000E0,-2.443460980E-3,2.443460980E-3
4.022001562E1,0.000000000E0,2.443460980E-3,0.000000000E0
4.024501250E1,-1.221730490E-3,1.221730490E-3,-1.221730490E-3
4.027000938E1,-2.443460980E-3,-3.665191354E-3,-2.443460980E-3
4.029500469E1,1.221730490E-3,1.221730490E-3,2.443460980E-3
4.032000156E1,0.000000000E0,7.330382708E-3,3.665191354E-3
4.034499688E1,2.443460980E-3,0.000000000E0,2.443460980E-3
4.036999531E1,6.108652335E-3,-9.773843922E-3,0.000000000E0
4.039001719E1,4.886921961E-3,-6.108652335E-3,0.000000000E0
4.041501250E1,3.665191354E-3,1.588249579E-2,4.886921961E-3
4.044001094E1,6.108652335E-3,2.443460934E-2,8.552113548E-3
4.046500625E1,1.221730490E-3,8.552113548E-3,1.099557430E-2
4.049000312E1,-4.886921961E-3,-4.886921961E-3,3.665191354E-3
4.051499844E1,1.221730490E-3,-1.221730467E-2,-1.221730490E-3
4.053999531E1,3.665191354E-3,-1.221730467E-2,-3.665191354E-3
4.056001875E1,-2.443460980E-3,6.108652335E-3,-3.665191354E-3
4.058501406E1,-1.343903504E-2,2.443460980E-3,0.000000000E0
4.061001094E1,-2.687807009E-2,-1.832595654E-2,3.665191354E-3
4.063500781E1,-4.276056588E-2,-4.031710699E-2,4.886921961E-3
4.066000469E1,-3.909537569E-2,-5.619960278E-2,-1.221730490E-3
4.068500000E1,-3.787364438E-2,-6.108652428E-2,3.665191354E-3
4.070999688E1,-4.031710699E-2,-6.841690838E-2,9.773843922E-3
4.073001875E1,-3.054326214E-2,-7.330382615E-2,3.665191354E-3
4.075501563E1,-9.773843922E-3,-8.063421398E-2,-3.665191354E-3
4.078001250E1,-7.330382708E-3,-4.764748737E-2,-1.221730490E-3
4.080500781E1,4.886921961E-3,6.108652335E-3,6.108652335E-3
4.083000469E1,1.710422710E-2,1.588249579E-2,1.466076542E-2
4.085500156E1,1.954768784E-2,-2.076941729E-2,6.108652335E-3
4.087999844E1,6.108652335E-3,-4.520402849E-2,3.665191354E-3
4.090499375E1,-1.221730490E-3,-3.176499158E-2,1.343903504E-2
4.092501562E1,-1.588249579E-2,-2.321287990E-2,1.588249579E-2
4.095001250E1,-3.543018550E-2,-3.176499158E-2,1.710422710E-2
4.097500938E1,-3.787364438E-2,-6.108652428E-2,1.099557430E-2
4.100000625E1,-2.932153083E-2,-1.026253626E-1,2.076941729E-2
4.102500156E1,-6.963863969E-2,-1.356120855E-1,2.687807009E-2
4.105000000E1,-9.285151958E-2,-1.258382350E-1,1.221730467E-2
4.107499531E1,-8.063421398E-2,-5.253440887E-2,-9.773843922E-3
4.109501719E1,-2.932153083E-2,3.298672289E-2,-1.466076542E-2
4.112001406E1,5.131268129E-2,1.490511149E-1,1.832595654E-2
4.114501094E1,9.773843735E-2,2.089159042E-1,5.986479297E-2
4.117000781E1,8.307766914E-2,1.795943826E-1,6.352998316E-2
4.119500312E1,2.443460934E-2,1.404990107E-1,2.687807009E-2
4.122000000E1,-2.199114859E-2,1.466076523E-1,-7.330382708E-3
4.124499531E1,-2.199114859E-2,1.514945775E-1,-2.199114859E-2
4.126501719E1,-1.588249579E-2,1.380555481E-1,-1.710422710E-2
4.129001562E1,-1.099557430E-2,1.209513173E-1,-7.330382708E-3
4.131501250E1,6.108652335E-3,1.417207420E-1,0.000000000E0
4.134000781E1,2.687807009E-2,1.979203373E-1,1.221730490E-3
4.136500469E1,8.185594529E-2,2.382374406E-1,9.773843922E-3
4.138501406E1,9.040805697E-2,2.394591719E-1,6.108652335E-3
4.140501719E1,1.148426607E-1,2.419026345E-1,-8.552113548E-3
4.143001562E1,1.209513173E-1,2.516764700E-1,-2.076941729E-2
4.145501094E1,1.123992056E-1,2.309070528E-1,-4.886921961E-3
4.148000625E1,8.429940045E-2,1.832595766E-1,2.321287990E-2
4.150500312E1,3.054326214E-2,7.452555746E-2,3.787364438E-2
4.153000000E1,-2.076941729E-2,-2.443460980E-3,2.565634064E-2
4.155499688E1,-6.475171447E-2,-3.298672289E-2,-2.443460980E-3
4.157501875E1,-7.330382615E-2,-4.153883457E-2,-2.199114859E-2
4.160001563E1,-4.764748737E-2,-6.475171447E-2,-3.176499158E-2
4.162501094E1,-2.443460980E-3,-9.896016866E-2,-1.466076542E-2
4.165000781E1,3.176499158E-2,-9.162978828E-2,8.552113548E-3
4.167500469E1,3.054326214E-2,-6.475171447E-2,1.954768784E-2
4.170000156E1,1.343903504E-2,-4.886921868E-2,7.330382708E-3
4.172499844E1,-9.773843922E-3,-7.330382615E-2,-1.221730467E-2
4.174999375E1,-1.832595654E-2,-8.429940045E-2,-2.443460934E-2
4.177001719E1,-1.099557430E-2,-7.330382615E-2,-2.199114859E-2
4.179501250E1,7.330382708E-3,-3.909537569E-2,-1.466076542E-2
4.182000938E1,0.000000000E0,-8.552113548E-3,2.443460980E-3
4.184500625E1,-8.552113548E-3,-2.076941729E-2,1.221730467E-2
4.187000469E1,4.886921961E-3,-2.809980139E-2,-1.221730490E-3
4.189499844E1,3.054326214E-2,-4.886921961E-3,-1.466076542E-2
4.191999531E1,3.176499158E-2,4.398229718E-2,-1.466076542E-2
4.194001875E1,1.588249579E-2,6.230825558E-2,-3.665191354E-3
4.196501406E1,-1.221730490E-3,3.909537569E-2,1.710422710E-2
4.199001094E1,-1.832595654E-2,2.565634064E-2,1.343903504E-2
4.201500625E1,-7.330382708E-3,1.954768784E-2,3.665191354E-3
4.204000313E1,2.932153083E-2,5.009094998E-2,-8.552113548E-3
4.206500000E1,5.253440887E-2,7.819075137E-2,-9.773843922E-3
4.208999688E1,4.153883457E-2,7.452555746E-2,6.108652335E-3
4.211001875E1,2.565634064E-2,5.131268129E-2,1.954768784E-2
4.213501562E1,1.221730467E-2,2.932153083E-2,2.199114859E-2
4.216001250E1,-6.108652335E-3,2.932153083E-2,8.552113548E-3
4.218500781E1,-1.588249579E-2,4.276056588E-2,-7.330382708E-3
4.221000469E1,-2.321287990E-2,3.787364438E-2,-9.773843922E-3
4.223500000E1,-2.199114859E-2,1.343903504E-2,-2.443460980E-3
4.225999844E1,-1.221730467E-2,8.552113548E-3,2.443460980E-3
4.228499375E1,1.221730490E-3,9.773843922E-3,7.330382708E-3
4.230501562E1,1.466076542E-2,2.076941729E-2,9.773843922E-3
4.233001250E1,1.588249579E-2,3.298672289E-2,1.588249579E-2
4.235500938E1,2.443460980E-3,3.420845419E-2,1.710422710E-2
4.238000625E1,-1.588249579E-2,1.221730467E-2,3.665191354E-3
4.240500156E1,-1.343903504E-2,8.552113548E-3,1.221730490E-3
4.242999844E1,-6.108652335E-3,2.199114859E-2,-1.221730490E-3
4.245499531E1,-3.665191354E-3,1.954768784E-2,3.665191354E-3
4.247501719E1,-2.443460980E-3,1.832595654E-2,8.552113548E-3
4.250001406E1,1.221730490E-3,2.443460934E-2,1.588249579E-2
4.252500938E1,-2.443460980E-3,3.054326214E-2,1.221730467E-2
4.255000625E1,-8.552113548E-3,2.565634064E-2,2.443460980E-3
4.257503906E1,-7.330382708E-3,2.199114859E-2,-3.665191354E-3
4.260000000E1,-1.099557430E-2,8.552113548E-3,-1.221730490E-3
4.262499531E1,-1.343903504E-2,-2.321287990E-2,3.665191354E-3
4.264501719E1,-1.221730490E-3,-2.321287990E-2,2.443460980E-3
4.267001563E1,2.443460980E-3,-3.665191354E-3,2.443460980E-3
4.269501094E1,-4.886921961E-3,-7.330382708E-3,-2.443460980E-3
4.272000781E1,-7.330382708E-3,-2.199114859E-2,-4.886921961E-3
4.274500313E1,-7.330382708E-3,-4.276056588E-2,-4.886921961E-3
4.277000156E1,-2.443460980E-3,-4.764748737E-2,-6.108652335E-3
4.279499688E1,-7.330382708E-3,-5.009094998E-2,-2.443460980E-3
4.281999375E1,-2.076941729E-2,-6.230825558E-2,2.443460980E-3
4.284001562E1,-2.443460934E-2,-8.674286306E-2,4.886921961E-3
4.286501250E1,-2.199114859E-2,-1.075122803E-1,-3.665191354E-3
4.289000938E1,-2.321287990E-2,-1.050688177E-1,-1.343903504E-2
4.291500469E1,-3.420845419E-2,-1.001819000E-1,-1.588249579E-2
4.294000156E1,-3.298672289E-2,-9.896016866E-2,-4.886921961E-3
4.296499844E1,-2.076941729E-2,-1.062905490E-1,4.886921961E-3
4.298999531E1,-9.773843922E-3,-1.160643920E-1,4.886921961E-3
4.301001719E1,0.000000000E0,-1.038470864E-1,-4.886921961E-3
4.303501250E1,-1.221730490E-3,-7.208209485E-2,-9.773843922E-3
4.306000938E1,-1.099557430E-2,-3.665191308E-2,-7.330382708E-3
4.308500625E1,-1.954768784E-2,-3.665191354E-3,0.000000000E0
4.311000313E1,-1.221730467E-2,2.321287990E-2,9.773843922E-3
4.313499844E1,-2.443460980E-3,4.031710699E-2,1.343903504E-2
4.315999688E1,-6.108652335E-3,2.443460934E-2,1.466076542E-2
4.318001875E1,-9.773843922E-3,2.443460980E-3,1.466076542E-2
4.320501406E1,-1.588249579E-2,-4.153883457E-2,1.588249579E-2
4.323001094E1,-2.321287990E-2,-8.185594529E-2,1.588249579E-2
4.325500625E1,-3.298672289E-2,-1.258382350E-1,9.773843922E-3
4.328000469E1,-4.153883457E-2,-1.576032341E-1,0.000000000E0
4.330500000E1,-3.543018550E-2,-1.722639948E-1,-1.588249579E-2
4.332999688E1,-3.176499158E-2,-1.734857261E-1,-1.954768784E-2
4.335001875E1,-3.298672289E-2,-1.539380401E-1,-1.343903504E-2
4.337501562E1,-1.221730467E-2,-1.441641897E-1,0.000000000E0
4.340001250E1,-6.108652335E-3,-1.490511149E-1,8.552113548E-3
4.342500781E1,-7.330382708E-3,-1.551597714E-1,6.108652335E-3
4.345000469E1,-1.099557430E-2,-1.404990107E-1,-1.099557430E-2
4.347500156E1,-1.588249579E-2,-9.162978828E-2,-2.321287990E-2
4.349999844E1,-1.221730467E-2,-5.253440887E-2,-1.954768784E-2
4.352499375E1,-1.588249579E-2,0.000000000E0,-3.665191354E-3
4.354501563E1,-2.321287990E-2,3.787364438E-2,8.552113548E-3
4.357001406E1,-2.687807009E-2,8.552113175E-2,1.221730467E-2
4.359500938E1,-1.343903504E-2,1.392772794E-1,1.343903504E-2
4.362000625E1,-1.221730490E-3,1.612684280E-1,8.552113548E-3
4.364500156E1,1.221730467E-2,1.563815027E-1,-2.443460980E-3
4.366999844E1,6.108652335E-3,1.551597714E-1,-1.343903504E-2
4.369499531E1,-8.552113548E-3,1.722639948E-1,-1.466076542E-2
4.371501719E1,-9.773843922E-3,1.844813079E-1,-1.099557430E-2
4.374001406E1,1.221730490E-3,1.869247556E-1,-3.665191354E-3
4.376500938E1,7.330382708E-3,1.600466967E-1,1.221730467E-2
4.379000781E1,-9.773843922E-3,1.148426607E-1,1.343903504E-2
4.381500313E1,-2.687807009E-2,5.619960278E-2,6.108652335E-3
4.384000000E1,-3.665191308E-2,1.099557430E-2,-6.108652335E-3
4.386499688E1,-4.031710699E-2,-2.199114859E-2,-7.330382708E-3
4.388501875E1,-3.298672289E-2,-4.031710699E-2,-1.221730467E-2
4.391001562E1,-2.443460934E-2,-5.375614017E-2,-1.710422710E-2
4.393501094E1,-1.588249579E-2,-4.398229718E-2,-1.954768784E-2
4.396000781E1,-1.710422710E-2,-8.552113548E-3,-9.773843922E-3
4.398500469E1,-9.773843922E-3,3.420845419E-2,8.552113548E-3
4.401000156E1,-4.886921961E-3,5.497787148E-2,1.710422710E-2
4.403499688E1,-1.099557430E-2,5.742133036E-2,1.221730467E-2
4.405999375E1,-2.076941729E-2,4.398229718E-2,8.552113548E-3
4.408001719E1,-3.176499158E-2,3.543018550E-2,7.330382708E-3
4.410501250E1,-3.176499158E-2,2.809980139E-2,1.221730490E-3
4.413000938E1,-3.420845419E-2,3.665191354E-3,-6.108652335E-3
4.415500469E1,-3.543018550E-2,-3.176499158E-2,-6.108652335E-3
4.418000156E1,-3.298672289E-2,-3.909537569E-2,-9.773843922E-3
4.420499844E1,-2.199114859E-2,-1.588249579E-2,-7.330382708E-3
4.422999531E1,-9.773843922E-3,-6.108652335E-3,-4.886921961E-3
4.425001719E1,-3.665191354E-3,-1.221730490E-3,-3.665191354E-3
4.427501406E1,-1.221730490E-3,-3.665191354E-3,0.000000000E0
4.430001094E1,-1.221730467E-2,3.665191354E-3,3.665191354E-3
4.432500625E1,-2.687807009E-2,1.710422710E-2,7.330382708E-3
4.435000312E1,-4.031710699E-2,1.588249579E-2,8.552113548E-3
4.437500000E1,-3.298672289E-2,1.954768784E-2,9.773843922E-3
4.439999688E1,-2.565634064E-2,1.832595654E-2,1.221730467E-2
4.442001875E1,-1.954768784E-2,0.000000000E0,1.221730467E-2
4.444501406E1,-2.565634064E-2,-2.443460934E-2,1.466076542E-2
4.447001250E1,-3.176499158E-2,-4.764748737E-2,1.466076542E-2
4.449500781E1,-2.565634064E-2,-5.619960278E-2,3.665191354E-3
4.452000469E1,-2.199114859E-2,-3.909537569E-2,0.000000000E0
4.454500000E1,-1.466076542E-2,-1.588249579E-2,0.000000000E0
4.456999688E1,-1.588249579E-2,-1.221730467E-2,3.665191354E-3
4.459499375E1,-2.443460934E-2,-1.343903504E-2,1.221730490E-3
4.461501563E1,-2.809980139E-2,-8.552113548E-3,3.665191354E-3
4.464001250E1,-2.199114859E-2,1.099557430E-2,4.886921961E-3
4.466500781E1,-8.552113548E-3,3.176499158E-2,2.443460980E-3
4.469000625E1,-1.221730490E-3,4.398229718E-2,-1.221730490E-3
4.471500156E1,3.665191354E-3,5.864306167E-2,2.443460980E-3
4.473999844E1,1.099557430E-2,7.941248268E-2,3.665191354E-3
4.476499375E1,1.221730467E-2,9.407324344E-2,9.773843922E-3
4.478501719E1,8.552113548E-3,8.552113175E-2,1.343903504E-2
4.481001406E1,1.099557430E-2,7.330382615E-2,1.466076542E-2
4.483500938E1,1.588249579E-2,5.619960278E-2,8.552113548E-3
4.486000625E1,4.886921961E-3,3.909537569E-2,1.221730490E-3
4.488500156E1,-3.665191354E-3,1.221730467E-2,-4.886921961E-3
4.491000000E1,1.221730490E-3,-2.199114859E-2,-3.665191354E-3
4.493499531E1,1.221730490E-3,-2.687807009E-2,-4.886921961E-3
4.495501719E1,7.330382708E-3,-2.443460934E-2,-2.443460980E-3
4.498001406E1,1.710422710E-2,-1.466076542E-2,2.443460980E-3
4.500501094E1,2.076941729E-2,-1.588249579E-2,8.552113548E-3
4.503000781E1,1.710422710E-2,-3.054326214E-2,7.330382708E-3
4.505500313E1,0.000000000E0,-5.253440887E-2,2.443460980E-3
4.508000000E1,-1.466076542E-2,-6.230825558E-2,-2.443460980E-3
4.510499688E1,-1.832595654E-2,-5.009094998E-2,0.000000000E0
4.512501875E1,-2.076941729E-2,-3.054326214E-2,1.221730490E-3
4.515001562E1,-1.954768784E-2,-8.552113548E-3,2.443460980E-3
4.517501250E1,-1.221730467E-2,1.099557430E-2,-1.221730490E-3
4.520000938E1,-8.552113548E-3,1.099557430E-2,-1.221730490E-3
4.522500469E1,2.443460980E-3,7.330382708E-3,4.886921961E-3
4.525000156E1,9.773843922E-3,1.343903504E-2,9.773843922E-3
4.527499688E1,1.343903504E-2,1.343903504E-2,2.443460980E-3
4.529999375E1,6.108652335E-3,1.710422710E-2,-2.443460980E-3
4.532001719E1,-7.330382708E-3,1.343903504E-2,-1.221730490E-3
4.534501250E1,-1.099557430E-2,9.773843922E-3,-1.221730490E-3
4.537000938E1,-6.108652335E-3,9.773843922E-3,0.000000000E0
4.539500625E1,-8.552113548E-3,1.343903504E-2,2.443460980E-3
4.542000156E1,-7.330382708E-3,1.832595654E-2,2.443460980E-3
4.544499844E1,-6.108652335E-3,2.443460934E-2,1.221730490E-3
4.546999531E1,-4.886921961E-3,1.343903504E-2,6.108652335E-3
4.549001875E1,-7.330382708E-3,-1.221730490E-3,4.886921961E-3
4.551501250E1,-8.552113548E-3,-1.099557430E-2,3.665191354E-3
4.554001094E1,-1.221730467E-2,-7.330382708E-3,1.221730490E-3
4.556500781E1,-1.954768784E-2,-1.099557430E-2,0.000000000E0
4.559000469E1,-2.076941729E-2,-1.221730467E-2,-1.221730490E-3
4.561500000E1,-1.588249579E-2,-3.665191354E-3,-1.221730490E-3
4.563999688E1,-2.076941729E-2,1.221730490E-3,4.886921961E-3
4.566001875E1,-2.076941729E-2,-2.443460980E-3,4.886921961E-3
4.568501563E1,-1.710422710E-2,-7.330382708E-3,3.665191354E-3
4.571001094E1,-1.466076542E-2,-1.099557430E-2,3.665191354E-3
4.573500781E1,-1.343903504E-2,-1.343903504E-2,-3.665191354E-3
4.576000469E1,-9.773843922E-3,-1.343903504E-2,-2.443460980E-3
4.578500000E1,-9.773843922E-3,-2.076941729E-2,0.000000000E0
4.580999844E1,-1.221730467E-2,-3.054326214E-2,3.665191354E-3
4.583499375E1,-1.099557430E-2,-3.665191308E-2,1.099557430E-2
4.585501562E1,-8.552113548E-3,-3.298672289E-2,9.773843922E-3
4.588001406E1,-4.886921961E-3,-1.343903504E-2,3.665191354E-3
4.590500938E1,-3.665191354E-3,-1.343903504E-2,-3.665191354E-3
4.593000625E1,-8.552113548E-3,-3.298672289E-2,-3.665191354E-3
4.595500156E1,0.000000000E0,-4.031710699E-2,-1.221730490E-3
4.598001094E1,2.443460980E-3,-2.809980139E-2,4.886921961E-3
4.600499531E1,7.330382708E-3,-1.343903504E-2,6.108652335E-3
4.602501719E1,0.000000000E0,-3.665191354E-3,3.665191354E-3
4.605001406E1,-1.221730490E-3,1.710422710E-2,4.886921961E-3
4.607500938E1,-4.886921961E-3,1.710422710E-2,8.552113548E-3
4.610000781E1,-1.710422710E-2,-2.321287990E-2,9.773843922E-3
4.612500313E1,-3.909537569E-2,-6.841690838E-2,0.000000000E0
4.615000000E1,-4.276056588E-2,-7.086037099E-2,-7.330382708E-3
4.617499531E1,-3.054326214E-2,-3.787364438E-2,-8.552113548E-3
4.619501719E1,-2.199114859E-2,-4.886921961E-3,-1.221730490E-3
4.622001562E1,-1.343903504E-2,3.665191308E-2,2.443460980E-3
4.624501094E1,-7.330382708E-3,6.230825558E-2,3.665191354E-3
4.627000781E1,-3.665191354E-3,6.108652428E-2,8.552113548E-3
4.629500469E1,-3.665191354E-3,5.131268129E-2,4.886921961E-3
4.632000156E1,1.221730490E-3,5.253440887E-2,2.443460980E-3
4.634499688E1,-3.665191354E-3,4.764748737E-2,-7.330382708E-3
4.636999375E1,-2.443460980E-3,4.520402849E-2,-3.665191354E-3
4.639001406E1,-2.443460980E-3,4.153883457E-2,-3.665191354E-3
4.641501250E1,6.108652335E-3,3.543018550E-2,-1.221730490E-3
4.644000938E1,6.108652335E-3,2.932153083E-2,-6.108652335E-3
4.646500469E1,-4.886921961E-3,1.588249579E-2,-8.552113548E-3
4.649000156E1,-1.099557430E-2,2.443460980E-3,-1.099557430E-2
4.651499844E1,0.000000000E0,-1.466076542E-2,-7.330382708E-3
4.653999531E1,0.000000000E0,-2.687807009E-2,-6.108652335E-3
4.656001719E1,-1.221730490E-3,-3.176499158E-2,-4.886921961E-3
4.658501250E1,-6.108652335E-3,-4.153883457E-2,-2.443460980E-3
4.661001094E1,-8.552113548E-3,-3.665191308E-2,-1.221730490E-3
4.663500625E1,-1.832595654E-2,-2.687807009E-2,2.443460980E-3
4.666000312E1,-2.321287990E-2,-1.832595654E-2,-2.443460980E-3
4.668499844E1,-1.588249579E-2,-7.330382708E-3,-3.665191354E-3
4.670999688E1,-7.330382708E-3,3.665191354E-3,0.000000000E0
4.673001875E1,-8.552113548E-3,-1.221730490E-3,2.443460980E-3
4.675501406E1,-1.710422710E-2,-1.832595654E-2,0.000000000E0
4.678001094E1,-9.773843922E-3,1.221730490E-3,0.000000000E0
4.680500781E1,2.443460980E-3,1.466076542E-2,-4.886921961E-3
4.683000625E1,9.773843922E-3,2.443460980E-3,-6.108652335E-3
4.685500000E1,9.773843922E-3,-2.443460934E-2,-4.886921961E-3
4.687999688E1,1.221730490E-3,-3.420845419E-2,-2.443460980E-3
4.690499375E1,-3.665191354E-3,-4.398229718E-2,-2.443460980E-3
4.692501562E1,-6.108652335E-3,-4.886921868E-2,-2.443460980E-3
4.695001250E1,-3.665191354E-3,-4.886921868E-2,-1.221730490E-3
4.697500781E1,-1.221730490E-3,-3.420845419E-2,0.000000000E0
4.700000625E1,-4.886921961E-3,-1.954768784E-2,0.000000000E0
4.702500156E1,-1.466076542E-2,-1.343903504E-2,1.221730490E-3
4.704999844E1,-8.552113548E-3,-1.832595654E-2,4.886921961E-3
4.707499375E1,-7.330382708E-3,-3.909537569E-2,1.221730467E-2
4.709501562E1,-8.552113548E-3,-3.665191308E-2,1.710422710E-2
4.712001406E1,-7.330382708E-3,-2.076941729E-2,2.076941729E-2
4.714500938E1,-2.199114859E-2,-1.221730467E-2,1.588249579E-2
4.717000625E1,-3.420845419E-2,-5.253440887E-2,1.099557430E-2
4.719500156E1,-3.420845419E-2,-8.552113175E-2,9.773843922E-3
4.722000000E1,-2.443460934E-2,-7.208209485E-2,6.108652335E-3
4.724499531E1,-3.054326214E-2,-4.886921868E-2,8.552113548E-3
4.726501719E1,-2.687807009E-2,-5.497787148E-2,1.221730467E-2
4.729001406E1,-2.076941729E-2,-5.742133036E-2,9.773843922E-3
4.731501094E1,-1.832595654E-2,-5.497787148E-2,7.330382708E-3
4.734000781E1,-1.466076542E-2,-5.131268129E-2,6.108652335E-3
4.736500469E1,-1.588249579E-2,-6.230825558E-2,3.665191354E-3
4.739000000E1,-7.330382708E-3,-5.742133036E-2,6.108652335E-3
4.741499688E1,-7.330382708E-3,-3.909537569E-2,2.443460980E-3
4.743501875E1,-1.099557430E-2,-2.809980139E-2,1.221730490E-3
4.746001563E1,-1.221730490E-3,-1.221730467E-2,6.108652335E-3
4.748501094E1,6.108652335E-3,-1.343903504E-2,9.773843922E-3
4.751000938E1,2.443460980E-3,-1.832595654E-2,1.343903504E-2
4.753500469E1,-3.665191354E-3,-6.108652335E-3,7.330382708E-3
4.756000156E1,-7.330382708E-3,-4.886921961E-3,4.886921961E-3
4.758499688E1,-1.710422710E-2,-2.932153083E-2,0.000000000E0
4.760999531E1,-1.466076542E-2,-5.742133036E-2,0.000000000E0
4.763001719E1,-3.665191354E-3,-7.819075137E-2,1.221730490E-3
4.765501250E1,-6.108652335E-3,-8.796459436E-2,-4.886921961E-3
4.768000938E1,-7.330382708E-3,-7.574728876E-2,-7.330382708E-3
4.770500625E1,1.221730490E-3,-6.352998316E-2,-3.665191354E-3
4.773000312E1,4.886921961E-3,-6.352998316E-2,0.000000000E0
4.775499844E1,2.443460980E-3,-7.086037099E-2,3.665191354E-3
4.777999531E1,-1.221730490E-3,-7.208209485E-2,3.665191354E-3
4.780001719E1,-7.330382708E-3,-5.986479297E-2,1.221730490E-3
4.782501406E1,-8.552113548E-3,-4.642575979E-2,-2.443460980E-3
4.785001094E1,-8.552113548E-3,-5.131268129E-2,-6.108652335E-3
4.787500625E1,-6.108652335E-3,-4.276056588E-2,-6.108652335E-3
4.790000313E1,0.000000000E0,-3.420845419E-2,1.221730490E-3
4.792500000E1,0.000000000E0,-3.298672289E-2,7.330382708E-3
4.794999688E1,-3.665191354E-3,-4.764748737E-2,6.108652335E-3
4.797001875E1,-6.108652335E-3,-5.742133036E-2,4.886921961E-3
4.799501406E1,-6.108652335E-3,-4.764748737E-2,-1.221730490E-3
4.802001250E1,-8.552113548E-3,-3.909537569E-2,-2.443460980E-3
4.804500781E1,-1.221730467E-2,-3.054326214E-2,0.000000000E0
4.807000469E1,-1.099557430E-2,-1.832595654E-2,2.443460980E-3
4.809500000E1,-2.443460980E-3,-1.221730490E-3,6.108652335E-3
4.811999844E1,3.665191354E-3,0.000000000E0,1.099557430E-2
4.814499375E1,2.443460980E-3,7.330382708E-3,1.221730467E-2
4.816501562E1,0.000000000E0,1.343903504E-2,8.552113548E-3
4.819001250E1,0.000000000E0,2.565634064E-2,7.330382708E-3
4.821500938E1,0.000000000E0,3.543018550E-2,6.108652335E-3
4.824000625E1,-6.108652335E-3,3.543018550E-2,3.665191354E-3
4.826500156E1,-1.099557430E-2,3.298672289E-2,3.665191354E-3
4.828999844E1,-4.886921961E-3,3.909537569E-2,7.330382708E-3
4.831499375E1,4.886921961E-3,4.642575979E-2,7.330382708E-3
