"Time (s)","Linear Acceleration x (m/s^2)","Linear Acceleration y (m/s^2)","Linear Acceleration z (m/s^2)"
2.999843800E-2,-1.667999923E-1,1.053999960E-1,-1.481000036E-1
6.000156300E-2,-2.069000006E-1,5.249999836E-2,-2.669999897E-1
9.000312500E-2,-1.378999949E-1,1.009999961E-1,-2.495999932E-1
1.200046880E-1,3.680000082E-2,2.682999969E-1,-1.184999943E-1
1.400062500E-1,1.591999978E-1,2.471999973E-1,-6.579999626E-2
1.600187500E-1,1.599999964E-1,2.266999930E-1,-1.127000004E-1
1.899890630E-1,1.647000015E-1,-4.939999804E-2,-1.223999932E-1
2.100109380E-1,2.071999907E-1,2.829999849E-2,-1.553999931E-1
2.400125000E-1,3.669999838E-1,2.128999978E-1,3.130000085E-2
2.700156250E-1,5.320000052E-1,3.009999916E-2,1.559000015E-1
3.000171880E-1,4.298000038E-1,1.740000024E-2,4.779999703E-2
3.299875000E-1,3.410999775E-1,3.499999875E-3,-4.429999739E-2
3.500093750E-1,3.131999969E-1,3.139999881E-2,-8.799999952E-3
3.850328130E-1,3.386999965E-1,-5.849999934E-2,2.149999887E-2
4.149875000E-1,4.309999943E-2,-3.738999963E-1,-5.619999766E-2
4.350109380E-1,-7.369999588E-2,-1.092000008E-1,2.070000023E-2
4.650125000E-1,-1.193000004E-1,5.304999948E-1,2.036999911E-1
4.950140630E-1,-3.156999946E-1,4.025000036E-1,3.290999830E-1
5.250171880E-1,-4.346999824E-1,4.505999982E-1,2.379999906E-1
5.550187500E-1,-1.811999977E-1,5.871999860E-1,6.369000077E-1
5.849890630E-1,4.999999702E-2,-4.279999807E-2,3.134000003E-1
6.050109380E-1,-2.989999950E-2,-1.815999895E-1,2.190000005E-2
6.350140630E-1,-9.739999473E-2,-8.460000157E-2,-2.800000012E-1
6.650156250E-1,-3.768999875E-1,3.299999982E-2,-7.109999657E-2
6.950171880E-1,-4.966000021E-1,-5.439999700E-2,2.440999895E-1
7.249890630E-1,-7.655000091E-1,-3.379999846E-2,2.366999984E-1
7.450109380E-1,-7.276999950E-1,4.559999704E-2,8.859999478E-2
7.750125000E-1,-5.435000062E-1,2.630999982E-1,1.120999977E-1
8.050140630E-1,-3.601999879E-1,1.365000010E-1,3.482999802E-1
8.350171880E-1,-2.782999873E-1,8.999999613E-3,4.102999866E-1
8.650187500E-1,-2.716000080E-1,8.739999682E-2,3.400000036E-1
8.949890630E-1,-3.115999997E-1,1.557999998E-1,3.282999992E-1
9.150125000E-1,-3.332999945E-1,8.709999919E-2,3.574999869E-1
9.450140630E-1,-3.373000026E-1,1.458999962E-1,4.159999788E-1
9.750156250E-1,-3.851999938E-1,8.689999580E-2,3.962000012E-1
1.005017188E0,-3.141999841E-1,3.779999912E-2,4.298999906E-1
1.034989063E0,-2.395999879E-1,1.759999990E-2,4.452999830E-1
1.055010938E0,-2.201999873E-1,7.629999518E-2,4.602999985E-1
1.085012500E0,-3.578999937E-1,1.645999998E-1,4.306999743E-1
1.115014063E0,-5.238999724E-1,2.137999982E-1,3.788000047E-1
1.145017188E0,-5.879999995E-1,6.669999659E-2,4.217999876E-1
1.175017188E0,-4.244000018E-1,1.055999994E-1,4.199999869E-1
1.204989063E0,-3.823999763E-1,1.738999933E-1,3.780999780E-1
1.225012500E0,-3.475999832E-1,1.244999990E-1,3.946000040E-1
1.255014063E0,-3.425999880E-1,6.199999712E-3,3.428999782E-1
1.285015625E0,-4.418999851E-1,-4.199999850E-3,2.863000035E-1
1.315017188E0,-3.623999953E-1,8.370000124E-2,1.652999967E-1
1.344989063E0,-4.043000042E-1,2.429999970E-2,2.531999946E-1
1.365010938E0,-4.145999849E-1,6.340000033E-2,2.680000067E-1
1.395014063E0,-2.843999863E-1,1.322000027E-1,2.265999913E-1
1.425015625E0,-1.437000036E-1,9.259999543E-2,3.044999838E-1
1.455017188E0,-1.264999956E-1,4.299999774E-2,3.078999817E-1
1.484987500E0,-1.841000021E-1,1.013999954E-1,3.559999764E-1
1.505009375E0,-1.889999956E-1,1.401999891E-1,3.870999813E-1
1.535012500E0,-1.595000029E-1,9.019999951E-2,3.838000000E-1
1.565014063E0,-1.428999901E-1,7.959999889E-2,2.613999844E-1
1.595015625E0,-1.771999896E-1,2.039999887E-2,2.264999896E-1
1.625018750E0,-1.378999949E-1,-2.899999917E-2,2.143999934E-1
1.654989063E0,-1.516999900E-1,1.019999944E-2,2.076999992E-1
1.675010938E0,-1.052000001E-1,2.989999950E-2,2.360999882E-1
1.705012500E0,-1.542999893E-1,4.989999905E-2,2.442999929E-1
1.735015625E0,-2.294999957E-1,1.876000017E-1,2.875999808E-1
1.765017188E0,-4.210999906E-1,2.076999992E-1,3.489999771E-1
1.794987500E0,-3.828999996E-1,1.002999991E-1,3.744999766E-1
1.815009375E0,-2.829999924E-1,1.296999902E-1,4.876999855E-1
1.845012500E0,-2.671000063E-1,1.588999927E-1,5.047000051E-1
1.875014063E0,-2.408999950E-1,1.094999984E-1,4.557999969E-1
1.905015625E0,-1.084999964E-1,9.919999540E-2,4.226999879E-1
1.935018750E0,-4.010000080E-2,2.989999950E-2,3.136999905E-1
1.964989063E0,-5.680000037E-2,3.929999843E-2,2.662999928E-1
1.985010938E0,-1.089999974E-1,3.909999877E-2,3.005000055E-1
2.015012500E0,-2.031999975E-1,6.839999557E-2,3.272999823E-1
2.045015625E0,-2.640999854E-1,1.075999960E-1,2.802000046E-1
2.075017188E0,-2.155999988E-1,3.920000046E-2,2.313999981E-1
2.104987500E0,-1.208999977E-1,6.849999726E-2,2.351999879E-1
2.125009375E0,-9.290000051E-2,1.076999977E-1,2.723999918E-1
2.155012500E0,-1.898999959E-1,6.830000132E-2,2.714999914E-1
2.185014063E0,-3.962999880E-1,1.464999914E-1,1.635999978E-1
2.215015625E0,-5.640999675E-1,1.375999898E-1,3.669999912E-2
2.245018750E0,-6.807999611E-1,2.060000040E-2,2.978000045E-1
2.274989063E0,-6.139000058E-1,-1.444000006E-1,3.515999913E-1
2.295010938E0,-5.900999904E-1,-1.140000001E-1,3.364999890E-1
2.325012500E0,-3.615999818E-1,2.298000008E-1,3.035999835E-1
2.355015625E0,-1.789999940E-2,1.419999897E-1,9.659999609E-2
2.385017188E0,1.260000020E-1,8.280000091E-2,2.219999954E-2
2.414987500E0,1.665000021E-1,1.604999900E-1,-3.999999724E-3
2.435010938E0,8.999999613E-3,2.483999878E-1,-1.256999969E-1
2.465012500E0,-1.808999926E-1,1.596999913E-1,-1.398999989E-1
2.495014063E0,-1.516000032E-1,1.693999916E-1,-2.539999969E-2
2.525017188E0,-9.129999578E-2,2.229999937E-2,3.999999899E-4
2.555018750E0,9.250000119E-2,3.219999745E-2,-4.059999809E-2
2.575046875E0,2.175999880E-1,1.005999967E-1,-2.019999921E-2
2.605010938E0,3.660999835E-1,8.039999753E-2,1.949999928E-1
2.635014063E0,3.792999983E-1,1.049999986E-2,3.173999786E-1
2.665015625E0,5.389999971E-2,1.009999961E-2,3.281999826E-1
2.695017188E0,-3.190000057E-1,1.377999932E-1,2.290999889E-1
2.724987500E0,-8.398999572E-1,2.753999829E-1,1.323999912E-1
2.745010938E0,-1.092000008E0,2.173999995E-1,1.331999898E-1
2.775012500E0,-1.007799983E0,1.399999950E-2,2.865000069E-1
2.805014063E0,-5.546000004E-1,-1.021999940E-1,3.355999887E-1
2.835015625E0,6.219999865E-2,8.529999852E-2,2.955999970E-1
2.865018750E0,5.823999643E-1,1.642999947E-1,3.673999906E-1
2.894989063E0,7.012000084E-1,1.230999976E-1,4.080999792E-1
2.915010938E0,6.092999578E-1,7.299999893E-2,4.095999897E-1
2.945014063E0,3.043999970E-1,1.206000000E-1,3.511999846E-1
2.975015625E0,-1.525000036E-1,1.004999951E-1,1.809999943E-1
3.005017188E0,-5.386999846E-1,2.190000005E-2,3.689999878E-2
3.034987500E0,-5.142999887E-1,2.290999889E-1,5.139999837E-2
3.055010938E0,-3.299999833E-1,2.197999954E-1,3.189999983E-2
3.085012500E0,-7.609999925E-2,-1.913999915E-1,1.039999947E-1
3.115014063E0,1.885000020E-1,-1.419999897E-1,1.449999958E-2
3.145017188E0,2.782999873E-1,9.219999611E-2,-6.119999662E-2
3.175018750E0,1.321000010E-1,1.004999951E-1,6.019999832E-2
3.204987500E0,-1.300000004E-3,1.583999991E-1,1.890999973E-1
3.225012500E0,-8.989999443E-2,2.171999961E-1,2.119999975E-1
3.255012500E0,4.399999976E-3,1.783999950E-1,2.082999945E-1
3.285015625E0,2.663999796E-1,3.139999881E-2,2.899000049E-1
3.315017188E0,4.101999998E-1,3.099999949E-2,3.932999969E-1
3.344989063E0,3.734999895E-1,3.049999848E-2,4.016000032E-1
3.365010938E0,1.028999984E-1,1.280999929E-1,3.974999785E-1
3.395012500E0,-6.069999933E-2,7.899999619E-2,2.513000071E-1
3.425014063E0,-1.469999999E-1,6.859999895E-2,6.849999726E-2
3.455017188E0,-2.675999999E-1,1.765999943E-1,7.509999722E-2
3.485018750E0,-2.628000081E-1,1.571999937E-1,2.133999914E-1
3.514989063E0,-2.795000076E-1,1.093999967E-1,1.512999982E-1
3.535010938E0,-2.886999846E-1,1.002999991E-1,1.053999960E-1
3.565012500E0,-2.750000060E-1,1.008000001E-1,-4.699999839E-2
3.595015625E0,-3.043999970E-1,5.219999701E-2,-8.889999986E-2
3.625017188E0,-2.047999948E-1,-9.479999542E-2,5.079999939E-2
3.654989063E0,-5.779999867E-2,-1.041999981E-1,7.259999961E-2
3.675010938E0,-4.769999906E-2,1.209999993E-1,-2.089999989E-2
3.705012500E0,-1.303000003E-1,2.084999979E-1,-6.179999933E-2
3.735014063E0,-2.293999940E-1,1.008000001E-1,-2.459999919E-2
3.765017188E0,-1.963000000E-1,-6.570000201E-2,4.149999842E-2
3.795018750E0,-2.322999984E-1,9.160000086E-2,6.340000033E-2
3.824989063E0,-2.442999929E-1,1.212999970E-1,6.929999590E-2
3.845012500E0,-1.772999913E-1,1.215999946E-1,7.239999622E-2
3.875014063E0,-4.699999839E-2,9.290000051E-2,1.723999977E-1
3.905015625E0,-6.570000201E-2,6.409999728E-2,1.828999966E-1
3.935017188E0,-1.242999956E-1,1.579999924E-2,2.585999966E-1
3.964989063E0,-6.049999967E-2,6.520000100E-2,2.913999856E-1
3.985010938E0,1.119999960E-2,9.489999712E-2,2.485999912E-1
4.015012500E0,2.389999852E-2,1.343999952E-1,2.195999920E-1
4.045015625E0,3.629999980E-2,1.247999966E-1,1.662999988E-1
4.075017188E0,3.639999777E-2,1.838999987E-1,7.000000030E-2
4.105018750E0,4.639999941E-2,1.056999937E-1,-3.949999809E-2
4.134990625E0,-2.109999955E-2,7.799999788E-3,-1.136000007E-1
4.155012500E0,-7.689999789E-2,1.789999940E-2,-7.849999517E-2
4.185014063E0,-1.555999964E-1,1.850000024E-2,-5.899999756E-3
4.215015625E0,-1.782999933E-1,-5.909999833E-2,9.659999609E-2
4.245017188E0,-7.369999588E-2,9.300000034E-3,9.769999981E-2
4.274989063E0,1.850000024E-2,6.790000200E-2,1.700000018E-1
4.295010938E0,-1.199999941E-3,1.559000015E-1,2.232999951E-1
4.325012500E0,-1.555999964E-1,1.753000021E-1,2.410999984E-1
4.355015625E0,-2.374999970E-1,8.779999614E-2,1.409000009E-1
4.375028125E0,-2.064999938E-1,8.850000054E-2,1.308999956E-1
4.405007813E0,-1.271999925E-1,1.185999960E-1,1.481999904E-1
4.435009375E0,1.421999931E-1,2.071999907E-1,8.489999920E-2
4.465012500E0,1.963000000E-1,2.069000006E-1,-1.193999946E-1
4.495014063E0,1.599999964E-1,1.567000002E-1,-2.178999931E-1
4.525015625E0,7.599999662E-3,-5.920000002E-2,-1.485999972E-1
4.555018750E0,1.139999926E-2,-6.949999928E-2,-1.658999920E-1
4.584989063E0,-3.499999875E-3,1.454999894E-1,-2.236000001E-1
4.605010938E0,-1.493999958E-1,5.709999800E-2,-1.923999935E-1
4.635012500E0,-1.123999953E-1,3.779999912E-2,-2.569999918E-2
4.665015625E0,-3.610000014E-2,1.454000026E-1,3.179999813E-2
4.695017188E0,-1.009999961E-1,1.552999914E-1,2.539999969E-2
4.724987500E0,-2.543999851E-1,-4.050000012E-2,1.279999968E-2
4.745009375E0,-2.303999960E-1,6.749999523E-2,9.139999747E-2
4.775012500E0,-1.444000006E-1,2.639999986E-1,2.412999868E-1
4.805014063E0,-1.640999913E-1,2.443999946E-1,2.226999998E-1
4.835015625E0,-4.690000042E-2,1.174999997E-1,1.191999987E-1
4.865018750E0,1.808999926E-1,9.809999913E-2,8.749999851E-2
4.894987500E0,2.162999958E-1,6.790000200E-2,-4.949999973E-2
4.915010938E0,2.247999907E-1,-1.300000004E-3,-1.499999911E-1
4.945012500E0,2.370999902E-1,-7.029999793E-2,-1.919000000E-1
4.975015625E0,9.640000015E-2,-1.899999916E-3,2.089999989E-2
5.005017188E0,3.170000017E-2,2.759999968E-2,9.669999778E-2
5.034987500E0,-9.979999810E-2,4.749999940E-2,4.519999772E-2
5.055010938E0,-1.083999947E-1,1.455999911E-1,9.679999948E-2
5.085012500E0,-1.737999916E-1,2.241999954E-1,1.534999907E-1
5.115014063E0,-2.159999907E-1,1.957999915E-1,1.008000001E-1
5.145015625E0,-1.306999922E-1,1.667999923E-1,2.669999935E-2
5.175017188E0,-6.920000166E-2,1.668999940E-1,6.689999998E-2
5.204989063E0,-3.419999778E-2,-4.829999804E-2,-1.970000006E-2
5.225010938E0,1.438999921E-1,-8.739999682E-2,-4.589999840E-2
5.255014063E0,2.716999948E-1,6.879999489E-2,-7.379999757E-2
5.285015625E0,2.947999835E-1,9.599999525E-3,9.860000014E-2
5.315017188E0,1.409000009E-1,1.360999942E-1,2.048999965E-1
5.344987500E0,-1.020999998E-1,7.669999450E-2,2.406999916E-1
5.365010938E0,-3.064999878E-1,1.061999947E-1,9.059999883E-2
5.395012500E0,-3.454999924E-1,2.446999997E-1,4.419999942E-2
5.425014063E0,-3.208000064E-1,7.829999924E-2,5.909999833E-2
5.455015625E0,-2.240999937E-1,-8.799999952E-3,9.730000049E-2
5.485018750E0,-1.457999945E-1,1.093999967E-1,-1.489999983E-2
5.514989063E0,-1.409999933E-2,1.096999943E-1,-7.779999822E-2
5.535010938E0,2.290000021E-2,1.290999949E-1,-6.549999863E-2
5.565014063E0,1.119999960E-2,1.682000011E-1,-6.949999928E-2
5.595015625E0,-4.809999838E-2,8.980000019E-2,-6.579999626E-2
5.625017188E0,-2.869999968E-2,1.129999943E-2,-6.729999930E-2
5.654989063E0,-6.449999660E-2,9.979999810E-2,-8.139999956E-2
5.675010938E0,-2.489999868E-2,1.489000022E-1,-4.559999704E-2
5.705012500E0,-3.819999844E-2,3.099999949E-2,6.499999668E-3
5.735014063E0,-2.209999971E-2,6.019999832E-2,2.499999851E-2
5.765015625E0,-6.140000001E-2,1.581999958E-1,1.409999933E-2
5.795018750E0,1.960000023E-2,1.191999987E-1,4.490000010E-2
5.824989063E0,7.599999756E-2,7.009999454E-2,4.869999737E-2
5.845010938E0,1.097999960E-1,3.049999848E-2,8.549999446E-2
5.875048438E0,1.200999990E-1,7.899999619E-2,3.109999932E-2
5.905014063E0,1.141999960E-1,9.829999506E-2,6.889999658E-2
5.935017188E0,3.929999843E-2,7.829999924E-2,9.259999543E-2
5.964989063E0,2.469999902E-2,1.172999963E-1,1.208999977E-1
5.985010938E0,4.969999939E-2,1.366000026E-1,1.102999970E-1
6.015012500E0,-3.199999919E-3,1.363999993E-1,6.780000031E-2
6.045014063E0,1.799999969E-3,1.164999977E-1,7.999999798E-4
6.075015625E0,1.789999940E-2,5.749999732E-2,-4.209999740E-2
6.105018750E0,5.499999970E-2,6.729999930E-2,-2.999999933E-2
6.134989063E0,2.089999989E-2,6.700000167E-2,4.900000058E-3
6.155010938E0,-2.789999917E-2,1.799999923E-2,3.139999881E-2
6.185014063E0,-9.800000116E-3,8.659999818E-2,-1.779999956E-2
6.215015625E0,-9.649999440E-2,6.700000167E-2,3.500000015E-2
6.245017188E0,-1.132999957E-1,1.358000040E-1,2.939999849E-2
6.274989063E0,-4.820000008E-2,1.361999959E-1,8.729999512E-2
6.295010938E0,-2.769999951E-2,1.067999974E-1,1.238999963E-1
6.325012500E0,1.090000011E-2,8.720000088E-2,1.389999967E-2
6.355014063E0,-7.620000094E-2,1.166999936E-1,3.999999911E-2
6.385017188E0,-8.720000088E-2,3.819999844E-2,9.629999846E-2
6.415018750E0,-3.649999946E-2,1.657999903E-1,4.299999680E-3
6.444989063E0,-1.110999957E-1,1.169999987E-1,-9.730000049E-2
6.465010938E0,-1.171000004E-1,6.830000132E-2,-9.119999409E-2
6.495014063E0,-1.004999951E-1,6.870000064E-2,-1.017000005E-1
6.525015625E0,-4.010000080E-2,6.870000064E-2,-7.959999889E-2
6.555017188E0,1.099999994E-2,9.999999776E-3,7.199999876E-3
6.584989063E0,-1.719999872E-2,5.920000002E-2,-4.199999850E-3
6.605010938E0,-4.589999840E-2,8.859999478E-2,-3.499999875E-3
6.635012500E0,1.209999993E-2,1.081999987E-1,7.239999622E-2
6.665014063E0,3.979999945E-2,1.080999970E-1,1.313000023E-1
6.695017188E0,3.539999947E-2,7.849999517E-2,1.448999941E-1
6.725018750E0,6.350000203E-2,8.829999715E-2,1.583999991E-1
6.754989063E0,9.869999439E-2,9.799999744E-2,1.450999975E-1
6.775010938E0,4.849999771E-2,1.077999994E-1,9.079999477E-2
6.805014063E0,4.559999704E-2,6.849999726E-2,7.499999553E-2
6.835015625E0,1.200000010E-2,1.173999980E-1,3.949999809E-2
6.865017188E0,-3.929999843E-2,2.909999900E-2,-3.899999894E-3
6.894989063E0,-2.779999934E-2,9.779999405E-2,-8.320000023E-2
6.915010938E0,-3.700000048E-2,7.829999924E-2,-1.122999936E-1
6.945012500E0,-1.108999997E-1,9.999999747E-5,-6.610000134E-2
6.975014063E0,-1.383000016E-1,6.999999750E-4,-1.259000003E-1
7.005017188E0,-4.699999932E-3,9.889999777E-2,-5.429999903E-2
7.035018750E0,5.659999698E-2,1.184999943E-1,-1.989999972E-2
7.064989063E0,4.789999872E-2,1.772999913E-1,-1.019999944E-2
7.085010938E0,1.850000024E-2,1.870999932E-1,4.279999807E-2
7.115012500E0,-7.109999657E-2,1.280999929E-1,5.419999734E-2
7.145015625E0,-1.494999975E-1,6.929999590E-2,8.100000024E-2
7.175017188E0,-1.415999979E-1,6.989999861E-2,4.380000010E-2
7.204989063E0,-4.319999740E-2,1.092000008E-1,4.019999877E-2
7.225010938E0,-4.199999850E-3,9.939999878E-2,7.739999890E-2
7.255012500E0,4.499999806E-3,7.979999483E-2,4.050000012E-2
7.285015625E0,7.029999793E-2,6.989999861E-2,3.390000015E-2
7.315017188E0,8.229999989E-2,2.049999870E-2,6.809999794E-2
7.344987500E0,1.169999968E-2,3.019999899E-2,1.048000008E-1
7.365010938E0,-3.409999982E-2,9.910000116E-2,6.269999593E-2
7.395012500E0,-9.999999747E-5,1.287999898E-1,4.829999804E-2
7.425014063E0,4.930000007E-2,1.092999950E-1,1.799999923E-2
7.455015625E0,-8.999999613E-3,8.969999850E-2,2.479999885E-2
7.485017188E0,-5.649999902E-2,8.980000019E-2,1.409999933E-2
7.514989063E0,-5.449999869E-2,8.989999443E-2,-3.280000016E-2
7.535010938E0,-4.369999841E-2,1.096000001E-1,-6.229999661E-2
7.565012500E0,-1.333999932E-1,9.969999641E-2,-1.006999984E-1
7.595015625E0,-1.474999934E-1,6.079999730E-2,-1.188999936E-1
7.625017188E0,-4.169999808E-2,3.199999779E-2,-3.959999979E-2
7.654987500E0,2.909999900E-2,3.199999779E-2,-1.026000008E-1
7.675009375E0,9.669999778E-2,1.005999967E-1,-3.099999949E-2
7.705012500E0,5.769999698E-2,1.495999992E-1,3.879999742E-2
7.735014063E0,1.370000001E-2,1.197999939E-1,4.010000080E-2
7.765015625E0,-4.789999872E-2,1.686999947E-1,-1.789999940E-2
7.795017188E0,-7.339999825E-2,5.139999837E-2,3.329999745E-2
7.824989063E0,-4.919999838E-2,8.129999787E-2,-2.740000002E-2
7.845010938E0,-1.549999975E-2,5.219999701E-2,-4.179999977E-2
7.875012500E0,1.459999941E-2,7.180000097E-2,-6.119999662E-2
7.905015625E0,4.439999908E-2,1.110999957E-1,-8.969999850E-2
7.935017188E0,2.070000023E-2,6.159999967E-2,-7.059999555E-2
7.964987500E0,-3.029999882E-2,7.119999826E-2,-5.519999936E-2
7.985009375E0,-5.759999901E-2,1.105999947E-1,-2.479999885E-2
8.015012500E0,-3.419999778E-2,1.499999911E-1,-2.410000004E-2
8.045014063E0,2.840000018E-2,1.110999957E-1,-1.950000040E-2
8.075015625E0,1.960000023E-2,1.112999991E-1,-3.390000015E-2
8.105018750E0,6.030000001E-2,6.239999831E-2,-3.759999946E-2
8.134989063E0,4.659999907E-2,1.110999957E-1,-1.669999957E-2
8.155010938E0,1.640000008E-2,7.189999521E-2,2.799999900E-3
8.185014063E0,5.699999630E-3,1.011999995E-1,-4.470000044E-2
8.215015625E0,4.499999806E-3,8.150000125E-2,-2.349999920E-2
8.245017188E0,3.319999948E-2,7.159999758E-2,-4.209999740E-2
8.274987500E0,1.500000013E-3,1.008000001E-1,-2.850000001E-2
8.295010938E0,1.099999994E-3,1.203999966E-1,7.999999798E-4
8.325012500E0,1.999999862E-3,8.129999787E-2,-1.829999872E-2
8.355014063E0,1.090000011E-2,1.008000001E-1,1.999999862E-3
8.385017188E0,1.599999960E-3,7.140000165E-2,-7.400000002E-3
8.415018750E0,3.859999776E-2,1.105000004E-1,1.169999968E-2
8.444989063E0,5.099999905E-2,3.199999919E-3,-1.799999923E-2
8.465010938E0,4.959999770E-2,3.260000050E-2,1.119999960E-2
8.495012500E0,-9.999999311E-4,3.099999856E-3,2.009999938E-2
8.525015625E0,-1.099999994E-3,3.249999881E-2,4.829999804E-2
8.555017188E0,1.769999973E-2,-2.630000003E-2,-1.040000003E-2
8.584987500E0,7.199999876E-3,2.259999886E-2,-9.999999776E-3
8.605010938E0,-2.249999903E-2,1.279999968E-2,-1.999999949E-4
8.635012500E0,-1.159999985E-2,-6.599999964E-3,3.729999810E-2
8.665014063E0,7.100000046E-3,1.279999968E-2,1.689999923E-2
8.695017188E0,-2.080000006E-2,1.289999951E-2,2.520000003E-2
8.725018750E0,-1.199999941E-3,3.260000050E-2,6.300000101E-2
8.754989063E0,-1.059999969E-2,2.290000021E-2,5.849999934E-2
8.775010938E0,2.730000019E-2,3.199999919E-3,3.720000014E-2
8.805014063E0,2.569999918E-2,3.099999856E-3,1.759999990E-2
8.835015625E0,-2.899999963E-3,-1.630000025E-2,1.649999991E-2
8.865017188E0,-2.190000005E-2,-1.630000025E-2,4.429999739E-2
8.894989063E0,3.489999846E-2,3.199999919E-3,3.159999847E-2
8.915010938E0,8.039999753E-2,-2.630000003E-2,4.899999872E-2
8.945012500E0,1.407999992E-1,3.439999744E-2,2.919999883E-2
8.975014063E0,4.690000042E-2,7.329999655E-2,-4.729999974E-2
9.005017188E0,-3.999999911E-2,5.370000005E-2,-6.350000203E-2
9.035018750E0,3.729999810E-2,1.613999903E-1,-2.039999887E-2
9.064989063E0,4.609999806E-2,1.429999992E-2,2.789999917E-2
9.085010938E0,-4.369999841E-2,5.350000039E-2,1.315999925E-1
9.115014063E0,-4.959999770E-2,2.439999953E-2,2.749999985E-2
9.145015625E0,3.849999979E-2,8.320000023E-2,-4.089999944E-2
9.175017188E0,9.919999540E-2,1.120999977E-1,5.999999703E-4
9.204989063E0,8.999999613E-3,5.319999903E-2,9.489999712E-2
9.225010938E0,-1.919999905E-2,7.299999893E-2,5.199999735E-2
9.255012500E0,-2.699999884E-2,9.269999713E-2,-5.289999768E-2
9.285014063E0,-6.350000203E-2,6.340000033E-2,-7.019999623E-2
9.315017188E0,-8.689999580E-2,4.399999976E-2,-2.620000020E-2
9.345018750E0,-9.319999814E-2,6.379999965E-2,-2.449999936E-2
9.374989063E0,-6.709999591E-2,3.469999880E-2,-2.149999887E-2
9.395010938E0,-3.619999811E-2,7.400000095E-2,-2.049999870E-2
9.425014063E0,1.189999934E-2,1.327999979E-1,-6.819999963E-2
9.455015625E0,1.989999972E-2,6.399999559E-2,-3.529999778E-2
9.485017188E0,9.599999525E-3,-4.699999932E-3,-9.049999714E-2
9.514989063E0,-2.960000001E-2,3.429999948E-2,-1.001999974E-1
9.535010938E0,-5.669999868E-2,7.360000163E-2,-6.759999692E-2
9.565012500E0,-4.419999942E-2,9.339999408E-2,-6.999999750E-3
9.595014063E0,-3.959999979E-2,7.400000095E-2,-4.380000010E-2
9.625017188E0,-4.829999804E-2,9.369999915E-2,-1.096000001E-1
9.655018750E0,-4.949999973E-2,-2.399999881E-3,-1.004999951E-1
9.684989063E0,-7.669999450E-2,-3.170000017E-2,-1.119999960E-2
9.705010938E0,2.259999886E-2,-2.180000022E-2,-5.040000007E-2
9.735014063E0,2.899999917E-2,6.610000134E-2,-1.300999969E-1
9.765015625E0,-9.699999355E-3,7.199999876E-3,-3.700000048E-2
9.795017188E0,-1.659999974E-2,7.400000002E-3,7.859999686E-2
9.824989063E0,9.879999608E-2,7.299999706E-3,1.322000027E-1
9.845010938E0,6.539999694E-2,-2.219999954E-2,6.790000200E-2
9.875012500E0,6.069999933E-2,-9.109999985E-2,-9.529999644E-2
9.905014063E0,6.679999828E-2,-7.180000097E-2,-1.568000019E-1
9.935017188E0,-2.229999937E-2,-1.319999993E-2,-1.232999936E-1
9.965018750E0,-1.348000020E-1,1.640000008E-2,-6.149999797E-2
9.994989063E0,-1.595999897E-1,-2.300000051E-3,-1.950000040E-2
1.001501094E1,-1.056999937E-1,-1.999999862E-3,-8.429999650E-2
1.004501406E1,-2.569999918E-2,2.740000002E-2,-1.193999946E-1
1.007501562E1,-4.409999773E-2,5.680000037E-2,-7.129999995E-2
1.010501719E1,-2.149999887E-2,-8.020000160E-2,6.419999897E-2
1.013498906E1,2.679999918E-2,-8.020000160E-2,-6.229999661E-2
1.015501094E1,3.519999981E-2,-6.069999933E-2,-9.709999710E-2
1.018501250E1,1.389999967E-2,4.690000042E-2,-7.409999520E-2
1.021501563E1,-2.389999852E-2,-3.130000085E-2,7.079999894E-2
1.024501562E1,-1.279999968E-2,-3.119999915E-2,9.999999776E-3
1.027498750E1,-3.049999848E-2,-1.699999906E-3,-7.469999790E-2
1.029500938E1,-2.909999900E-2,-2.129999921E-2,-3.399999812E-2
1.032501250E1,1.199999941E-3,-4.079999775E-2,-3.249999881E-2
1.035501406E1,-9.399999864E-3,8.100000210E-3,4.519999772E-2
1.038501563E1,-2.819999866E-2,8.100000210E-3,6.319999695E-2
1.041501719E1,2.199999988E-3,-7.009999454E-2,3.979999945E-2
1.044498906E1,1.139999926E-2,-1.500000013E-3,2.869999968E-2
1.046501094E1,4.879999906E-2,8.100000210E-3,3.599999845E-2
1.049501250E1,3.709999844E-2,-2.129999921E-2,4.059999809E-2
1.052501562E1,5.519999936E-2,-1.159999985E-2,-9.399999864E-3
1.055501719E1,-1.480000000E-2,7.799999788E-3,-9.800000116E-3
1.058498750E1,-4.250000045E-2,-8.020000160E-2,1.779999956E-2
1.060500938E1,-1.199999941E-3,-3.099999949E-2,-1.109999977E-2
1.063501250E1,7.699999958E-3,1.789999940E-2,-1.099999994E-3
1.066501406E1,2.740000002E-2,-1.139999926E-2,2.649999969E-2
1.069501562E1,4.169999808E-2,2.600000007E-3,-1.239999942E-2
1.072501875E1,5.839999765E-2,1.200999990E-1,-1.999999862E-3
1.075498906E1,-1.399999950E-3,1.219999976E-2,8.089999855E-2
1.077501094E1,-4.820000008E-2,-1.689999923E-2,6.790000200E-2
1.080501250E1,2.399999881E-3,2.229999937E-2,-2.109999955E-2
1.083501562E1,3.959999979E-2,3.199999779E-2,-3.639999777E-2
1.086501719E1,-1.079999935E-2,2.209999971E-2,2.139999904E-2
1.089498750E1,-2.789999917E-2,2.600000007E-3,2.999999851E-4
1.091500938E1,-2.669999935E-2,2.229999937E-2,-8.999999613E-3
1.094501250E1,-4.470000044E-2,-2.649999969E-2,-1.879999973E-2
1.097501406E1,-4.989999905E-2,2.269999869E-2,-4.490000010E-2
1.100501562E1,-1.829999872E-2,3.199999919E-3,2.479999885E-2
1.103501875E1,2.969999984E-2,1.299999934E-2,3.899999894E-3
1.106498906E1,8.700000122E-3,7.169999927E-2,-1.529999916E-2
1.108501094E1,-1.049999986E-2,3.249999881E-2,-1.459999941E-2
1.111501250E1,-2.809999883E-2,-6.499999668E-3,1.349999942E-2
1.114501563E1,-7.699999958E-3,2.290000021E-2,-6.999999750E-3
1.117501719E1,-3.500000015E-2,7.209999859E-2,2.209999971E-2
1.120498750E1,-1.159999985E-2,-2.209999971E-2,3.949999809E-2
1.122501094E1,6.799999624E-3,-1.239999942E-2,1.860000007E-2
1.125501250E1,1.569999941E-2,-1.239999942E-2,8.499999531E-3
1.128501406E1,1.439999975E-2,5.599999800E-2,-2.029999904E-2
1.131501563E1,-4.999999888E-3,-3.209999949E-2,1.840000041E-2
1.134501875E1,-1.339999959E-2,2.669999935E-2,-1.040000003E-2
1.137498906E1,-6.729999930E-2,-2.190000005E-2,-3.649999946E-2
1.139501094E1,-3.610000014E-2,-5.130000040E-2,-4.429999739E-2
1.142501406E1,-4.329999909E-2,-1.189999934E-2,-4.399999976E-3
1.145501563E1,-3.299999982E-3,7.699999958E-3,1.459999941E-2
1.148501719E1,3.390000015E-2,-2.169999853E-2,-6.799999624E-3
1.151498750E1,1.219999976E-2,-2.300000051E-3,-2.459999919E-2
1.153501094E1,-2.569999918E-2,-2.180000022E-2,-2.349999920E-2
1.156501250E1,4.349999875E-2,-3.159999847E-2,1.620000042E-2
1.159501406E1,5.859999731E-2,-1.229999959E-2,1.439999975E-2
1.162501563E1,3.689999878E-2,-2.600000007E-3,-5.260000005E-2
1.165501875E1,5.899999756E-3,1.679999940E-2,-7.509999722E-2
1.168498906E1,-4.160000011E-2,-2.229999937E-2,-5.299999844E-3
1.170501094E1,-7.119999826E-2,6.199999712E-3,1.439999975E-2
1.173501406E1,-2.769999951E-2,4.569999874E-2,-3.159999847E-2
1.176501562E1,2.129999921E-2,7.509999722E-2,-1.019999944E-2
1.179501719E1,2.929999866E-2,4.559999704E-2,2.769999951E-2
1.182498906E1,3.749999776E-2,-2.309999987E-2,-1.500000013E-3
1.184501094E1,4.519999772E-2,3.549999744E-2,-1.090000011E-2
1.187501250E1,-6.199999712E-3,7.459999621E-2,3.769999743E-2
1.190501406E1,-5.429999903E-2,6.000000052E-3,5.570000038E-2
1.193501719E1,-3.079999983E-2,-3.280000016E-2,6.019999832E-2
1.196501875E1,-3.909999877E-2,7.509999722E-2,3.889999911E-2
1.199498906E1,-8.199999481E-2,7.549999654E-2,4.339999706E-2
1.201501094E1,-1.254999936E-1,3.669999912E-2,6.030000001E-2
1.204501406E1,-1.661999971E-1,7.899999619E-3,1.442999989E-1
1.207501562E1,-1.437999904E-1,2.850000001E-2,1.229999959E-1
1.210501719E1,-1.278000027E-1,-4.939999804E-2,3.229999915E-2
1.213498906E1,-7.000000030E-2,-1.939999871E-2,1.300000004E-3
1.215501094E1,-1.829999872E-2,9.399999864E-3,2.099999972E-2
1.218501250E1,1.099999994E-3,-1.150000002E-2,7.859999686E-2
1.221501406E1,2.819999866E-2,-1.299999934E-2,5.209999904E-2
1.224501719E1,-3.139999881E-2,2.469999902E-2,9.439999610E-2
1.227501875E1,6.390000135E-2,3.599999938E-3,1.127000004E-1
1.230498906E1,7.279999554E-2,-5.649999902E-2,1.199999973E-1
1.232501250E1,1.255999953E-1,-2.809999883E-2,1.482999921E-1
1.235501406E1,1.368999928E-1,-2.999999851E-4,1.132999957E-1
1.238501563E1,1.903999895E-1,2.759999968E-2,5.759999901E-2
1.241501719E1,1.695999950E-1,6.529999524E-2,-6.179999933E-2
1.244498906E1,1.648000032E-1,1.033999994E-1,1.919999905E-2
1.246501094E1,1.756999940E-1,6.329999864E-2,3.749999776E-2
1.249501250E1,2.012999952E-1,5.209999904E-2,-3.199999919E-3
1.252501406E1,1.820999980E-1,9.019999951E-2,-4.149999842E-2
1.255501719E1,2.815999985E-1,5.999999703E-4,-1.499999966E-2
1.257504531E1,3.551999927E-1,9.699999355E-3,-7.009999454E-2
1.260500938E1,3.698999882E-1,5.799999833E-2,-7.609999925E-2
1.263501094E1,3.137999773E-1,-2.129999921E-2,-6.560000032E-2
1.266501406E1,2.296999991E-1,4.679999873E-2,-9.659999609E-2
1.269501562E1,8.760000020E-2,7.589999586E-2,-2.309999987E-2
1.272501719E1,4.069999978E-2,5.619999766E-2,9.079999477E-2
1.275498906E1,1.198999956E-1,-5.179999769E-2,8.169999719E-2
1.277501094E1,1.458999962E-1,9.510000050E-2,3.199999779E-2
1.280501250E1,-4.369999841E-2,1.639000028E-1,-9.200000204E-3
1.283501562E1,-2.439999953E-2,6.579999626E-2,-1.500000013E-3
1.286501719E1,3.539999947E-2,2.639999986E-2,-5.289999768E-2
1.289501875E1,7.299999893E-2,6.799999624E-3,-3.500000015E-2
1.292498906E1,1.201999933E-1,-4.219999909E-2,-2.719999850E-2
1.294501250E1,1.128999963E-1,6.699999794E-3,-1.115999967E-1
1.297501406E1,-1.509999949E-2,1.048999950E-1,-1.289999932E-1
1.300501562E1,-2.636999786E-1,6.899999920E-3,-4.910000041E-2
1.303501719E1,-2.556000054E-1,-2.600000007E-3,-2.699999837E-3
1.306498906E1,-2.338999957E-1,3.659999743E-2,1.310000010E-2
1.308501094E1,-1.853999943E-1,7.589999586E-2,2.929999866E-2
1.311501250E1,-1.067999974E-1,4.649999738E-2,6.109999865E-2
1.314501563E1,-9.489999712E-2,2.679999918E-2,3.610000014E-2
1.317501719E1,-1.339999959E-2,7.100000046E-3,1.819999889E-2
1.320498750E1,-3.019999899E-2,1.689999923E-2,-6.899999920E-3
1.322500938E1,-5.689999834E-2,8.549999446E-2,-1.899999916E-3
1.325501250E1,-1.122999936E-1,4.629999772E-2,-9.959999472E-2
1.328501406E1,-6.459999830E-2,2.669999935E-2,-8.089999855E-2
1.331501563E1,-2.899999963E-3,-7.129999995E-2,-5.279999971E-2
1.334501719E1,1.775999963E-1,-4.189999774E-2,-1.889999956E-2
1.337498906E1,2.105999887E-1,6.999999750E-3,1.278999895E-1
1.339501094E1,2.063999921E-1,1.669999957E-2,1.985999942E-1
1.342501250E1,1.598999947E-1,5.599999800E-2,3.258000016E-1
1.345501563E1,9.250000119E-2,1.732999980E-1,2.525999844E-1
1.348501719E1,-3.649999946E-2,8.489999920E-2,1.234999970E-1
1.351498750E1,5.899999756E-3,3.559999913E-2,1.730000041E-2
1.353500938E1,6.399999559E-2,-8.209999651E-2,3.489999846E-2
1.356501250E1,1.190999970E-1,-5.279999971E-2,-7.109999657E-2
1.359501406E1,2.369999886E-2,3.529999778E-2,-1.230999976E-1
1.362501563E1,-8.219999820E-2,-4.299999774E-2,-4.380000010E-2
1.365501875E1,-5.609999970E-2,4.529999942E-2,-5.889999866E-2
1.368498906E1,-1.743000001E-1,5.529999733E-2,-2.630000003E-2
1.370501094E1,-1.588999927E-1,1.620000042E-2,5.169999972E-2
1.373501406E1,-7.509999722E-2,3.590000048E-2,6.099999696E-2
1.376501562E1,-8.150000125E-2,4.580000043E-2,1.469999924E-2
1.379501719E1,-3.240000084E-2,5.570000038E-2,2.989999950E-2
1.382498750E1,2.799999900E-3,3.619999811E-2,-1.310000010E-2
1.384500938E1,-5.119999871E-2,4.600000009E-2,-1.519999932E-2
1.387501250E1,-5.659999698E-2,3.629999980E-2,-7.310000062E-2
1.390501406E1,-1.869999990E-2,-1.260000002E-2,1.589999907E-2
1.393501562E1,5.099999718E-3,2.659999952E-2,-1.599999890E-2
1.396501875E1,5.159999803E-2,-2.229999937E-2,-2.049999870E-2
1.399498906E1,1.084999964E-1,-1.249999925E-2,-2.009999938E-2
1.401501094E1,7.539999485E-2,5.599999800E-2,3.439999744E-2
1.404501250E1,-1.699999906E-3,1.689999923E-2,9.649999440E-2
1.407501562E1,-8.799999952E-3,2.669999935E-2,3.700000048E-2
1.410501719E1,-7.669999450E-2,5.619999766E-2,-6.359999627E-2
1.413498750E1,-1.415999979E-1,-6.099999696E-2,-8.139999956E-2
1.415500938E1,-1.197999939E-1,7.699999958E-3,-3.629999980E-2
1.418501250E1,4.699999932E-3,1.257999986E-1,-5.049999803E-2
1.421501406E1,9.719999880E-2,8.200000040E-3,-4.079999775E-2
1.424501562E1,1.653999984E-1,7.679999620E-2,3.439999744E-2
1.427501875E1,2.309999987E-2,4.729999974E-2,2.369999886E-2
1.430498906E1,-6.109999865E-2,-1.599999960E-3,1.699999906E-2
1.432501094E1,-7.759999484E-2,4.729999974E-2,4.160000011E-2
1.435501250E1,-8.969999850E-2,4.749999940E-2,6.300000008E-3
1.438501563E1,-6.340000033E-2,3.779999912E-2,-2.009999938E-2
1.441501719E1,-4.459999874E-2,5.749999732E-2,9.989999980E-2
1.444498750E1,-1.112999991E-1,1.850000024E-2,2.950000018E-2
1.446501094E1,-1.228999943E-1,-4.979999736E-2,-7.769999653E-2
1.449501250E1,-6.369999796E-2,-4.999999655E-4,-3.599999845E-2
1.452501406E1,1.939999871E-2,2.899999917E-2,3.559999913E-2
1.455501563E1,-4.439999908E-2,3.889999911E-2,2.779999934E-2
1.458501875E1,-3.049999848E-2,7.829999924E-2,1.750000007E-2
1.461498906E1,-2.850000001E-2,4.889999703E-2,-7.739999890E-2
1.463501094E1,-7.719999552E-2,7.840000093E-2,-9.979999810E-2
1.466501406E1,-6.819999963E-2,2.929999866E-2,-8.810000122E-2
1.469501563E1,-1.008000001E-1,-9.599999525E-3,-6.140000001E-2
1.472501719E1,-6.729999930E-2,-4.859999940E-2,-4.769999906E-2
1.475498906E1,1.329999976E-2,4.949999973E-2,-5.590000004E-2
1.477501094E1,-5.499999970E-3,-1.899999939E-2,-5.859999731E-2
1.480501250E1,-1.299999934E-2,-4.829999804E-2,-4.319999740E-2
1.483501406E1,-1.119999960E-2,6.999999750E-4,-6.149999797E-2
1.486501719E1,-3.799999878E-2,1.085999981E-1,1.099999994E-2
1.489501875E1,-1.620000042E-2,7.999999798E-4,7.939999551E-2
1.492498906E1,5.279999971E-2,8.909999579E-2,1.529999916E-2
1.494501250E1,5.319999903E-2,4.989999905E-2,-4.839999974E-2
1.497501406E1,4.899999872E-2,3.019999899E-2,-8.109999448E-2
1.500501562E1,3.119999915E-2,2.049999870E-2,-6.709999591E-2
1.503501719E1,-3.999999724E-3,-1.840000041E-2,-4.199999850E-3
1.506498906E1,1.730000041E-2,1.099999994E-2,-9.999999311E-4
1.508501094E1,1.989999972E-2,4.059999809E-2,-4.369999841E-2
1.511501250E1,2.979999967E-2,-8.399999700E-3,-6.839999557E-2
1.514501406E1,8.499999531E-3,3.059999831E-2,-4.140000045E-2
1.517501719E1,-4.869999737E-2,7.959999889E-2,4.600000102E-3
1.520501875E1,-4.669999704E-2,8.949999511E-2,2.259999886E-2
1.523498906E1,2.399999881E-3,1.188999936E-1,-1.630000025E-2
1.525501094E1,-2.609999850E-2,2.089999989E-2,-5.359999835E-2
1.528501406E1,1.399999950E-2,-1.819999889E-2,-2.269999869E-2
1.531501563E1,-4.160000011E-2,7.000000030E-2,-2.699999837E-3
1.534501719E1,9.999999747E-5,-2.779999934E-2,1.109999940E-1
1.537498906E1,1.973999888E-1,-6.729999930E-2,9.229999781E-2
1.539501094E1,1.423999965E-1,5.989999697E-2,-5.200000014E-3
1.542501250E1,-4.449999705E-2,5.009999871E-2,4.479999840E-2
1.545501563E1,7.100000046E-3,-5.749999732E-2,1.881999969E-1
1.548501719E1,6.430000067E-2,1.099999994E-2,6.689999998E-2
1.551501875E1,3.700000001E-3,8.940000087E-2,1.699999906E-2
1.554498906E1,-9.079999477E-2,-8.399999700E-3,9.439999610E-2
1.556501250E1,-4.849999771E-2,-2.779999934E-2,1.675999910E-1
1.559501406E1,-5.469999835E-2,7.029999793E-2,5.499999970E-3
1.562501563E1,-1.083999947E-1,1.799999969E-3,-1.179999951E-2
1.565501719E1,-3.329999745E-2,-1.056999937E-1,8.159999549E-2
1.568498906E1,-3.170000017E-2,-1.730000041E-2,5.769999698E-2
1.570501094E1,-9.820000082E-2,2.199999988E-2,6.300000008E-3
1.573501250E1,-2.097999901E-1,5.199999735E-2,-4.099999741E-2
1.576501562E1,-2.178999931E-1,3.399999812E-3,7.379999757E-2
1.579501719E1,-1.806000024E-1,-5.460000038E-2,-1.669999957E-2
1.582501875E1,-6.469999999E-2,3.359999880E-2,-9.569999576E-2
1.585498906E1,5.769999698E-2,7.279999554E-2,-4.050000012E-2
1.587501250E1,1.420999914E-1,1.118000001E-1,-2.549999952E-2
1.590501406E1,1.946000010E-1,1.212999970E-1,1.909999922E-2
1.593501562E1,2.272999883E-1,1.009999961E-1,7.609999925E-2
1.596501719E1,2.841999829E-1,-3.669999912E-2,3.849999979E-2
1.599498906E1,2.815999985E-1,6.039999798E-2,-5.489999801E-2
1.601501094E1,1.757999957E-1,2.089999989E-2,-3.099999949E-2
1.604501250E1,9.730000049E-2,-1.860000007E-2,-2.909999900E-2
1.607501563E1,9.820000082E-2,2.009999938E-2,-2.449999936E-2
1.610501719E1,9.519999474E-2,1.019999944E-2,-2.809999883E-2
1.613498750E1,9.079999477E-2,3.949999809E-2,-5.189999938E-2
1.615500938E1,1.119999960E-2,3.949999809E-2,-8.829999715E-2
1.618501250E1,-1.395999938E-1,6.889999658E-2,-6.189999729E-2
1.621501406E1,-3.312999904E-1,7.999999798E-4,-1.079999935E-2
1.624501562E1,-4.955999851E-1,1.109999977E-2,1.799999969E-3
1.627501875E1,-4.563999772E-1,1.298999935E-1,-3.359999880E-2
1.630498906E1,-3.452000022E-1,8.150000125E-2,-1.347000003E-1
1.632501094E1,-2.176999897E-1,1.329999976E-2,-1.775999963E-1
1.635501250E1,-1.287999898E-1,3.999999724E-3,-1.862999946E-1
1.638501562E1,-1.096000001E-1,2.369999886E-2,-8.940000087E-2
1.641501719E1,-7.369999588E-2,4.360000044E-2,-3.720000014E-2
1.644498750E1,-1.272999942E-1,3.409999982E-2,-1.043999940E-1
1.646500938E1,-7.440000027E-2,3.419999778E-2,-1.019999981E-1
1.649501250E1,-2.969999984E-2,3.449999914E-2,-2.559999935E-2
1.652501406E1,-1.649999991E-2,-1.439999975E-2,5.429999903E-2
1.655501562E1,-3.859999776E-2,5.299999844E-3,3.449999914E-2
1.658501719E1,-1.929999888E-2,2.529999986E-2,3.480000049E-2
1.661498906E1,1.259000003E-1,3.500000015E-2,3.139999881E-2
1.663501094E1,1.150999963E-1,1.035999954E-1,3.900000080E-2
1.666501250E1,3.720000014E-2,7.419999689E-2,7.319999486E-2
1.669501562E1,-3.170000017E-2,-4.299999680E-3,4.449999705E-2
1.672501719E1,-4.019999877E-2,4.470000044E-2,3.590000048E-2
1.675498750E1,-1.559999958E-2,2.520000003E-2,-5.999999703E-4
1.677501094E1,1.539999992E-2,5.699999630E-3,-1.489999983E-2
1.680501250E1,5.329999700E-2,3.500000015E-2,1.099999994E-2
1.683501406E1,4.089999944E-2,-4.199999850E-3,-5.009999871E-2
1.686501719E1,-2.119999938E-2,-4.399999976E-3,-3.900000080E-2
1.689501875E1,-5.999999866E-2,4.459999874E-2,2.300000004E-2
1.692498906E1,-6.549999863E-2,3.500000015E-2,6.839999557E-2
1.694501094E1,-1.269999985E-2,1.549999975E-2,2.329999954E-2
1.697501250E1,1.009999961E-2,4.509999976E-2,-2.499999944E-3
1.700501563E1,6.920000166E-2,-3.899999894E-3,2.309999987E-2
1.703501719E1,6.509999931E-2,-1.389999967E-2,-9.300000034E-3
1.706498750E1,2.089999989E-2,4.459999874E-2,2.119999938E-2
1.708500938E1,-1.950000040E-2,6.419999897E-2,2.319999970E-2
1.711501250E1,-7.999999449E-3,-4.349999875E-2,2.099999972E-2
1.714501406E1,1.099999994E-3,8.389999717E-2,2.939999849E-2
1.717501562E1,-6.419999897E-2,5.460000038E-2,5.299999937E-2
1.720501875E1,3.999999724E-3,-4.199999850E-3,4.899999872E-2
1.723498906E1,-5.299999844E-3,3.500000015E-2,6.199999712E-3
1.725501094E1,-4.270000011E-2,1.539999992E-2,3.700000001E-3
1.728501406E1,-1.379999984E-2,5.599999800E-3,2.429999970E-2
1.731501562E1,-2.349999920E-2,4.479999840E-2,5.289999768E-2
1.734501719E1,2.799999900E-3,8.389999717E-2,6.520000100E-2
1.737498750E1,-3.639999777E-2,5.499999970E-3,9.899999946E-3
1.739501094E1,-4.470000044E-2,4.479999840E-2,1.079999935E-2
1.742501250E1,-3.449999914E-2,9.380000085E-2,5.969999731E-2
1.745501406E1,-4.529999942E-2,-4.199999850E-3,1.779999956E-2
1.748501563E1,-7.329999655E-2,1.539999992E-2,-6.279999763E-2
1.751501875E1,-5.749999732E-2,6.469999999E-2,-1.640000008E-2
1.754498906E1,-5.099999905E-2,-1.329999976E-2,-1.899999916E-3
1.756501094E1,-3.889999911E-2,2.589999884E-2,-1.229999959E-2
1.759501406E1,-4.559999704E-2,6.529999524E-2,-2.919999883E-2
1.762501562E1,-1.689999923E-2,3.579999879E-2,1.199999941E-3
1.765501719E1,-1.669999957E-2,2.599999867E-2,7.999999798E-4
1.768498750E1,-1.689999923E-2,2.599999867E-2,-2.859999985E-2
1.770501094E1,-7.199999876E-3,3.579999879E-2,6.999999750E-4
1.773501250E1,-1.689999923E-2,2.599999867E-2,9.999999776E-3
1.776501406E1,4.099999741E-2,2.599999867E-2,0.000000000E0
1.779501719E1,-8.100000210E-3,1.620000042E-2,0.000000000E0
1.782501875E1,-2.699999884E-2,2.599999867E-2,9.699999355E-3
1.785498906E1,-3.460000083E-2,8.489999920E-2,1.829999872E-2
1.787501094E1,-2.379999869E-2,1.630000025E-2,2.689999901E-2
1.790501406E1,-2.329999954E-2,5.559999868E-2,-3.199999919E-3
1.793501563E1,-2.190000005E-2,1.046999991E-1,-2.180000022E-2
1.796501719E1,-1.399999950E-3,-4.219999909E-2,1.779999956E-2
1.799498906E1,2.489999868E-2,1.630000025E-2,6.899999920E-3
1.801501094E1,3.329999745E-2,-1.310000010E-2,6.599999964E-3
1.804501250E1,2.290000021E-2,-1.310000010E-2,-3.159999847E-2
1.807501406E1,2.089999989E-2,6.300000008E-3,2.999999851E-4
1.810501719E1,-1.789999940E-2,1.620000042E-2,5.700000003E-2
1.813501875E1,1.040000003E-2,2.589999884E-2,7.999999821E-2
1.816498906E1,2.950000018E-2,4.549999908E-2,2.799999900E-2
1.818501094E1,4.609999806E-2,4.539999738E-2,2.549999952E-2
1.821501406E1,4.259999841E-2,-1.349999942E-2,2.449999936E-2
1.824501562E1,4.969999939E-2,5.489999801E-2,7.209999859E-2
1.827501719E1,-9.999999776E-3,1.559999958E-2,4.849999771E-2
1.830498906E1,-9.200000204E-3,2.549999952E-2,3.739999980E-2
1.832500938E1,-1.789999940E-2,8.439999819E-2,-2.159999870E-2
1.835501250E1,-6.499999668E-3,5.499999970E-2,3.519999981E-2
1.838501562E1,3.000000026E-3,6.000000052E-3,5.240000039E-2
1.841501719E1,2.199999988E-3,2.559999935E-2,1.079999935E-2
1.844501875E1,-4.559999704E-2,2.559999935E-2,-2.719999850E-2
1.847499062E1,2.799999900E-3,2.019999921E-2,-2.499999851E-2
1.849501250E1,2.699999837E-3,1.040000003E-2,-1.449999958E-2
1.852501406E1,-7.379999757E-2,4.969999939E-2,4.270000011E-2
1.855501563E1,-1.136999950E-1,2.070000023E-2,-6.999999750E-3
1.858501719E1,1.569999941E-2,-8.499999531E-3,6.009999663E-2
1.861498906E1,4.010000080E-2,4.019999877E-2,5.489999801E-2
1.863501094E1,1.950000040E-2,2.060000040E-2,3.370000049E-2
1.866501250E1,8.499999531E-3,2.049999870E-2,3.099999949E-2
1.869501406E1,-1.150000002E-2,2.049999870E-2,7.440000027E-2
1.872501719E1,-3.999999911E-2,8.999999845E-4,1.370000001E-2
1.875501875E1,-4.589999840E-2,6.979999691E-2,8.679999411E-2
1.878498906E1,1.429999992E-2,6.009999663E-2,8.219999820E-2
1.880501094E1,3.240000084E-2,4.039999843E-2,6.960000098E-2
1.883501406E1,5.689999834E-2,9.999999311E-4,6.899999920E-3
1.886501562E1,-3.099999856E-3,1.069999952E-2,-1.209999993E-2
1.889501719E1,-3.000000026E-3,4.999999702E-2,4.470000044E-2
1.892498906E1,2.549999952E-2,4.999999702E-2,8.999999613E-2
1.894501094E1,2.520000003E-2,-3.819999844E-2,7.620000094E-2
1.897501250E1,8.669999987E-2,2.019999921E-2,-2.279999852E-2
1.900501563E1,3.549999744E-2,5.929999799E-2,-5.999999703E-4
1.903501562E1,6.059999764E-2,-3.879999742E-2,6.499999762E-2
1.906498750E1,5.799999833E-2,-2.909999900E-2,5.359999835E-2
1.908500938E1,5.460000038E-2,3.929999843E-2,3.249999881E-2
1.911501250E1,5.059999973E-2,6.859999895E-2,1.215000004E-1
1.914501406E1,9.800000116E-3,6.859999895E-2,1.064999998E-1
1.917501562E1,-3.790000081E-2,9.800000116E-3,2.319999970E-2
1.920501719E1,3.049999848E-2,-9.699999355E-3,8.949999511E-2
1.923498906E1,7.449999452E-2,-2.939999849E-2,1.196999997E-1
1.925501094E1,1.273999959E-1,7.809999585E-2,7.699999958E-2
1.928501250E1,5.529999733E-2,3.879999742E-2,1.124999970E-1
1.931501562E1,-2.359999903E-2,-1.979999989E-2,1.770000011E-1
1.934501719E1,-4.299999680E-3,6.839999557E-2,1.010999978E-1
1.937498750E1,-7.919999957E-2,3.920000046E-2,1.829999872E-2
1.939500938E1,-8.500000089E-2,-1.929999888E-2,2.679999918E-2
1.942501250E1,-1.439999975E-2,2.969999984E-2,4.519999772E-2
1.945501406E1,2.309999987E-2,2.999999851E-4,4.010000080E-2
1.948501563E1,3.150000051E-2,2.999999851E-4,2.889999934E-2
1.951501719E1,1.129999943E-2,3.949999809E-2,7.339999825E-2
1.954498906E1,-8.700000122E-3,-9.399999864E-3,6.119999662E-2
1.956501094E1,-8.700000122E-3,-3.879999742E-2,1.040000003E-2
1.959501250E1,3.999999899E-4,7.880000025E-2,5.649999902E-2
1.962501562E1,-9.519999474E-2,4.949999973E-2,7.339999825E-2
1.965501719E1,-6.769999862E-2,-4.800000042E-2,2.989999950E-2
1.968498750E1,-2.759999968E-2,7.939999551E-2,-9.529999644E-2
1.970500938E1,-4.490000010E-2,6.960000098E-2,-1.204999983E-1
1.973501250E1,-1.045999974E-1,-1.829999872E-2,-7.259999961E-2
1.976501406E1,-1.290999949E-1,5.049999803E-2,-7.930000126E-2
1.979501562E1,-2.201999873E-1,2.169999853E-2,-1.184999943E-1
1.982501875E1,-2.493999898E-1,2.600000007E-3,-4.589999840E-2
1.985498906E1,-1.815999895E-1,-1.589999907E-2,8.639999479E-2
1.987501094E1,-1.174999997E-1,3.339999914E-2,1.296000034E-1
1.990501406E1,-1.819999889E-2,2.369999886E-2,3.999999899E-4
1.993501563E1,-6.300000101E-2,-3.489999846E-2,-6.399999559E-2
1.996501719E1,6.199999712E-3,-5.499999970E-3,-2.799999900E-3
1.999498750E1,5.240000039E-2,5.309999734E-2,5.599999800E-3
2.001501094E1,3.139999881E-2,1.379999984E-2,-2.259999886E-2
2.004501094E1,-9.349999577E-2,-2.520000003E-2,-3.989999741E-2
2.007501406E1,-9.380000085E-2,5.359999835E-2,-5.429999903E-2
2.010501562E1,-9.070000052E-2,3.409999982E-2,-8.129999787E-2
2.013501875E1,-4.729999974E-2,4.409999773E-2,-3.799999878E-2
2.016498906E1,-7.400000002E-3,3.419999778E-2,-1.130999997E-1
2.018501094E1,-1.809999906E-2,-8.399999700E-3,-1.075999960E-1
2.021501406E1,-5.370000005E-2,1.119999960E-2,-9.789999574E-2
2.024501562E1,-3.260000050E-2,3.079999983E-2,-5.609999970E-2
2.027501719E1,-4.879999906E-2,5.059999973E-2,-3.329999745E-2
2.030498750E1,-4.789999872E-2,1.599999960E-3,6.999999750E-3
2.032500938E1,4.989999905E-2,4.079999775E-2,4.499999806E-2
2.035501250E1,1.004999951E-1,5.020000041E-2,4.999999888E-3
2.038501406E1,5.769999698E-2,5.979999900E-2,3.460000083E-2
2.041501563E1,2.529999986E-2,3.019999899E-2,1.370000001E-2
2.044501875E1,-1.509999949E-2,8.899999410E-2,-7.119999826E-2
2.047498906E1,-6.899999827E-2,-1.860000007E-2,-2.759999968E-2
2.049501094E1,-3.779999912E-2,-2.829999849E-2,-1.699999906E-2
2.052501250E1,-3.659999743E-2,3.049999848E-2,-9.129999578E-2
2.055501563E1,-9.910000116E-2,7.000000030E-2,-1.013999954E-1
2.058501719E1,-9.510000050E-2,-3.759999946E-2,-2.070000023E-2
2.061498750E1,-1.399999950E-2,1.139999926E-2,-7.479999959E-2
2.063501094E1,1.459999941E-2,3.099999949E-2,-4.339999706E-2
2.066501250E1,-4.399999976E-2,1.599999960E-3,-2.229999937E-2
2.069501406E1,-3.059999831E-2,3.119999915E-2,-3.049999848E-2
2.072501562E1,-3.819999844E-2,5.089999735E-2,-4.879999906E-2
2.075501875E1,-6.329999864E-2,1.189999934E-2,-5.429999903E-2
2.078498750E1,-5.879999697E-2,-7.400000002E-3,-5.279999971E-2
2.080501094E1,-7.719999552E-2,1.004999951E-1,-6.030000001E-2
2.083501406E1,-6.159999967E-2,3.209999949E-2,-3.629999980E-2
2.086501719E1,-1.066999957E-1,-6.799999624E-3,-4.409999773E-2
2.089501719E1,-7.939999551E-2,1.319999993E-2,-5.829999968E-2
2.092498906E1,-3.759999946E-2,4.270000011E-2,-3.649999946E-2
2.094501094E1,-1.649999991E-2,5.260000005E-2,-4.429999739E-2
2.097501250E1,-2.379999869E-2,4.289999977E-2,-1.239999942E-2
2.100501406E1,-1.310000010E-2,4.299999774E-2,-1.090000011E-2
2.103501719E1,1.459999941E-2,6.250000000E-2,9.999999747E-5
2.106501875E1,-1.200000010E-2,-1.970000006E-2,1.909999922E-2
2.109498906E1,-1.599999960E-3,-9.999999747E-5,-9.399999864E-3
2.111501094E1,4.539999738E-2,-2.960000001E-2,-2.779999934E-2
2.114501406E1,5.370000005E-2,-2.999999851E-4,-3.590000048E-2
2.117501562E1,3.499999875E-3,-1.019999944E-2,-2.349999920E-2
2.120501719E1,2.359999903E-2,-3.959999979E-2,-2.209999971E-2
2.123498906E1,3.189999983E-2,-2.989999950E-2,-9.999999311E-4
2.125501094E1,2.119999938E-2,-4.999999655E-4,-1.040000003E-2
2.128501250E1,4.869999737E-2,9.099999443E-3,1.899999939E-2
2.131501406E1,4.459999874E-2,-4.010000080E-2,3.649999946E-2
2.134501563E1,4.309999943E-2,-9.999999311E-4,-3.109999932E-2
2.137501875E1,-2.459999919E-2,8.799999952E-3,-2.999999851E-4
2.140498906E1,-4.299999680E-3,-3.029999882E-2,4.820000008E-2
2.142501094E1,5.469999835E-2,-2.049999870E-2,3.579999879E-2
2.145501250E1,3.130000085E-2,-1.090000011E-2,1.399999950E-2
2.148501563E1,-1.860000007E-2,-3.049999848E-2,4.239999875E-2
2.151501719E1,-2.679999918E-2,8.700000122E-3,2.979999967E-2
2.154498906E1,1.269999985E-2,-2.060000040E-2,-1.829999872E-2
2.156501094E1,2.950000018E-2,1.090000011E-2,1.189999934E-2
2.159501250E1,-1.699999906E-3,4.030000046E-2,4.719999805E-2
2.162501562E1,-3.909999877E-2,-1.840000041E-2,6.799999624E-3
2.165501719E1,-2.740000002E-2,4.050000012E-2,-2.109999955E-2
2.168501875E1,-4.580000043E-2,2.099999972E-2,5.609999970E-2
2.171499063E1,-1.459999941E-2,-8.200000040E-3,6.059999764E-2
2.173501094E1,4.699999932E-3,1.129999943E-2,1.699999906E-3
2.176501406E1,-2.449999936E-2,3.089999966E-2,3.799999831E-3
2.179501562E1,-3.189999983E-2,1.599999960E-3,-5.799999926E-3
2.182501875E1,-4.079999775E-2,4.089999944E-2,2.329999954E-2
2.185498906E1,-9.699999355E-3,1.159999985E-2,-1.529999916E-2
2.187501094E1,9.399999864E-3,-1.779999956E-2,1.339999959E-2
2.190501250E1,6.899999920E-3,2.119999938E-2,-6.300000008E-3
2.193501563E1,-2.219999954E-2,-1.789999940E-2,4.099999741E-2
2.196501719E1,3.669999912E-2,1.599999960E-3,1.069999952E-2
2.199498750E1,1.469999924E-2,3.089999966E-2,-1.049999986E-2
2.201500938E1,2.339999937E-2,5.040000007E-2,-6.999999750E-4
2.204501250E1,-1.640000008E-2,1.119999960E-2,7.799999788E-3
2.207501406E1,4.039999843E-2,-9.800000116E-3,6.699999794E-3
2.210501562E1,3.949999809E-2,9.699999355E-3,-3.700000001E-3
2.213501875E1,-2.799999900E-2,1.960000023E-2,5.099999718E-3
2.216498906E1,-7.100000046E-3,9.800000116E-3,2.400000021E-2
2.218501094E1,1.139999926E-2,1.960000023E-2,-3.449999914E-2
2.221501406E1,9.399999864E-3,2.929999866E-2,1.449999958E-2
2.224501406E1,-1.099999994E-3,-9.999999747E-5,3.390000015E-2
2.227501719E1,2.599999867E-2,4.869999737E-2,-4.309999943E-2
2.230498750E1,6.499999668E-3,9.499999695E-3,4.699999932E-3
2.232500938E1,-2.309999987E-2,3.889999911E-2,-1.459999941E-2
2.235501250E1,-3.099999949E-2,9.599999525E-3,-5.599999800E-3
2.238501406E1,-1.939999871E-2,0.000000000E0,1.459999941E-2
2.241501563E1,-1.789999940E-2,3.920000046E-2,-2.199999988E-2
2.244501875E1,-2.689999901E-2,2.939999849E-2,6.999999750E-3
2.247498906E1,-2.469999902E-2,9.999999747E-5,-2.799999900E-3
2.249501094E1,-1.420000009E-2,1.999999949E-4,-1.209999993E-2
2.252501406E1,-4.219999909E-2,2.969999984E-2,-1.109999977E-2
2.255501563E1,-2.929999866E-2,-1.699999906E-3,-9.899999946E-3
2.257504375E1,-9.200000204E-3,-2.129999921E-2,9.200000204E-3
2.260500781E1,-1.860000007E-2,-1.150000002E-2,-9.399999864E-3
2.263500938E1,1.989999972E-2,-1.699999906E-3,1.999999949E-4
2.266501250E1,-3.999999899E-4,-5.079999939E-2,-9.899999946E-3
2.269501406E1,8.599999361E-3,-3.119999915E-2,-9.899999946E-3
2.272501562E1,-2.019999921E-2,1.779999956E-2,-3.799999878E-2
2.275501875E1,-6.999999750E-4,3.739999980E-2,2.019999921E-2
2.278498906E1,-1.899999916E-3,-1.159999985E-2,1.929999888E-2
2.280501094E1,1.730000041E-2,-3.130000085E-2,-2.919999883E-2
2.283501250E1,1.529999916E-2,2.730000019E-2,-4.509999976E-2
2.286501562E1,6.499999668E-3,-1.169999968E-2,4.100000020E-3
2.289501719E1,2.389999852E-2,-1.179999951E-2,3.179999813E-2
2.292498750E1,-1.539999992E-2,-1.999999862E-3,-1.809999906E-2
2.294500938E1,2.349999920E-2,-1.189999934E-2,-8.399999700E-3
2.297501250E1,4.069999978E-2,-2.199999988E-3,-7.299999706E-3
2.300501406E1,1.090000011E-2,-2.180000022E-2,4.030000046E-2
2.303501562E1,4.999999655E-4,3.689999878E-2,9.999999747E-5
2.306501875E1,-9.300000034E-3,-1.970000006E-2,3.799999878E-2
2.309498906E1,1.009999961E-2,2.919999883E-2,6.159999967E-2
2.311501094E1,2.999999851E-4,-2.950000018E-2,3.079999983E-2
2.314501406E1,1.109999977E-2,9.699999355E-3,1.699999906E-3
2.317501562E1,-8.599999361E-3,-9.800000116E-3,6.999999750E-4
2.320501719E1,-3.720000014E-2,-9.800000116E-3,1.999999949E-4
2.323498750E1,-2.539999969E-2,-1.950000040E-2,7.499999832E-3
2.325500938E1,-1.489999983E-2,-9.599999525E-3,-2.099999925E-3
2.328501250E1,4.299999680E-3,9.899999946E-3,4.559999704E-2
2.331501406E1,-2.369999886E-2,-2.909999900E-2,3.269999847E-2
2.334501563E1,6.000000052E-3,-9.499999695E-3,1.370000001E-2
2.337501875E1,-3.499999875E-3,1.979999989E-2,1.249999925E-2
2.340498906E1,-1.339999959E-2,-5.849999934E-2,5.969999731E-2
2.342501094E1,1.539999992E-2,-5.849999934E-2,5.790000036E-2
2.345501406E1,2.429999970E-2,1.979999989E-2,4.399999976E-2
2.348501563E1,-2.359999903E-2,-1.929999888E-2,5.269999802E-2
2.351501719E1,4.900000058E-3,-2.909999900E-2,3.839999810E-2
2.354498750E1,1.399999950E-2,1.979999989E-2,-1.500000013E-3
2.356501094E1,1.439999975E-2,1.999999949E-4,2.740000002E-2
2.359501250E1,-4.999999888E-3,-9.499999695E-3,8.989999443E-2
2.362501406E1,2.319999970E-2,1.999999949E-4,7.699999958E-2
2.365501719E1,4.930000007E-2,0.000000000E0,-4.499999806E-3
2.368501875E1,4.759999737E-2,-1.960000023E-2,2.369999886E-2
2.371498906E1,1.599999890E-2,-9.899999946E-3,3.019999899E-2
2.373501094E1,4.329999909E-2,3.889999911E-2,1.950000040E-2
2.376501406E1,4.140000045E-2,-1.989999972E-2,1.779999956E-2
2.379501562E1,1.960000023E-2,-1.019999944E-2,-2.899999963E-3
2.382501719E1,-1.989999972E-2,-3.999999899E-4,-2.699999837E-3
2.385498906E1,-5.489999801E-2,-1.979999989E-2,5.599999800E-3
2.387501094E1,-3.370000049E-2,-1.970000006E-2,-3.999999724E-3
2.390501250E1,1.589999907E-2,-2.950000018E-2,-5.069999769E-2
2.393501406E1,2.259999886E-2,3.879999742E-2,-3.659999743E-2
2.396501719E1,-2.469999902E-2,-5.900000036E-2,3.099999949E-2
2.399501875E1,-1.310000010E-2,-9.899999946E-3,-2.779999934E-2
2.402498906E1,-2.190000005E-2,1.950000040E-2,-7.799999788E-3
2.404501250E1,-3.979999945E-2,-1.950000040E-2,-6.199999712E-3
2.407501406E1,-9.499999695E-3,-1.090000011E-2,3.700000001E-3
2.410501562E1,-9.200000204E-3,2.829999849E-2,1.209999993E-2
2.413501719E1,1.869999990E-2,2.819999866E-2,1.099999994E-2
2.416498906E1,7.699999958E-3,-5.020000041E-2,4.889999703E-2
2.418501094E1,3.739999980E-2,-5.999999866E-2,1.769999973E-2
2.421501250E1,3.329999745E-2,5.739999935E-2,-1.960000023E-2
2.424501406E1,-1.549999975E-2,1.819999889E-2,3.830000013E-2
2.427501719E1,-1.329999976E-2,-1.099999994E-2,1.579999924E-2
2.430501875E1,-3.269999847E-2,-1.199999941E-3,6.199999712E-3
2.433498906E1,-4.010000080E-2,-1.090000011E-2,-1.260000002E-2
2.435501094E1,-1.009999961E-2,-4.030000046E-2,-1.209999993E-2
2.438501406E1,2.909999900E-2,-1.079999935E-2,-1.159999985E-2
2.441501563E1,1.719999872E-2,-1.099999994E-3,7.699999958E-3
2.444501875E1,2.620000020E-2,8.499999531E-3,2.569999918E-2
2.447498906E1,3.409999982E-2,8.499999531E-3,2.190000005E-2
2.449501094E1,5.139999837E-2,-1.399999950E-3,-7.100000046E-3
2.452501250E1,2.009999938E-2,2.779999934E-2,2.169999853E-2
2.455501563E1,2.979999967E-2,1.300000004E-3,2.899999917E-2
2.458501719E1,1.069999952E-2,-2.799999900E-2,8.999999613E-3
2.461501875E1,1.879999973E-2,-2.819999866E-2,-3.570000082E-2
2.464499063E1,-1.119999960E-2,-4.779999703E-2,-4.360000044E-2
2.466501250E1,-1.099999994E-2,-1.840000041E-2,-2.209999971E-2
2.469501406E1,8.200000040E-3,-2.829999849E-2,-2.199999988E-3
2.472501562E1,-1.109999977E-2,1.099999994E-3,-4.989999905E-2
2.475501875E1,-1.970000006E-2,5.009999871E-2,-8.100000210E-3
2.478498906E1,2.999999851E-4,-4.779999703E-2,3.049999848E-2
2.480501094E1,9.899999946E-3,-7.719999552E-2,-9.099999443E-3
2.483501250E1,7.899999619E-3,2.060000040E-2,-7.899999619E-3
2.486501562E1,-2.939999849E-2,-1.840000041E-2,3.070000000E-2
2.489501719E1,8.999999845E-4,-1.829999872E-2,2.679999918E-2
2.492498750E1,3.999999899E-4,1.199999941E-3,-2.159999870E-2
2.494500938E1,1.300000004E-3,-6.729999930E-2,8.200000040E-3
2.497501250E1,2.840000018E-2,-5.759999901E-2,-2.699999837E-3
2.500501406E1,-2.909999900E-2,4.039999843E-2,-1.150000002E-2
2.503501563E1,-3.610000014E-2,1.399999950E-3,5.379999802E-2
2.506501719E1,1.049999986E-2,1.779999956E-2,4.219999909E-2
2.509498906E1,-9.300000034E-3,5.700000003E-2,-1.759999990E-2
2.511501094E1,-2.769999951E-2,1.779999956E-2,-7.499999832E-3
2.514501250E1,1.099999994E-3,2.759999968E-2,-7.100000046E-3
2.517501406E1,-3.570000082E-2,-1.599999960E-3,3.009999916E-2
2.520501719E1,-5.599999800E-3,8.200000040E-3,4.839999974E-2
2.523498750E1,-5.599999800E-3,1.799999923E-2,2.589999884E-2
2.525500938E1,1.319999993E-2,3.759999946E-2,3.419999778E-2
2.528501250E1,1.339999959E-2,5.719999969E-2,4.600000102E-3
2.531501406E1,1.200000010E-2,4.739999771E-2,1.200000010E-2
2.534501563E1,-3.629999980E-2,8.200000040E-3,-5.799999926E-3
2.537501875E1,-2.309999987E-2,2.799999900E-2,5.200000014E-3
2.540498906E1,-2.600000007E-3,8.689999580E-2,1.439999975E-2
2.542501094E1,-4.959999770E-2,5.759999901E-2,1.299999934E-2
2.545501406E1,-3.500000015E-2,2.840000018E-2,-2.549999952E-2
2.548501563E1,3.419999778E-2,8.899999782E-3,-5.379999802E-2
2.551501719E1,1.279999968E-2,5.779999867E-2,-3.199999779E-2
2.554498750E1,-2.699999884E-2,1.850000024E-2,-2.899999963E-3
2.556500938E1,-1.429999992E-2,-2.080000006E-2,-2.180000022E-2
2.559501250E1,1.329999976E-2,2.799999900E-2,-6.999999750E-4
2.562501406E1,-2.559999935E-2,1.819999889E-2,-4.889999703E-2
2.565501562E1,-1.370000001E-2,8.499999531E-3,-5.480000004E-2
2.568501875E1,-2.399999881E-3,-2.080000006E-2,-4.309999943E-2
2.571498906E1,-3.099999856E-3,4.769999906E-2,-4.789999872E-2
2.573501094E1,-3.099999856E-3,1.829999872E-2,-3.639999777E-2
2.576501406E1,-1.260000002E-2,-3.070000000E-2,-3.529999778E-2
2.579501562E1,2.529999986E-2,3.779999912E-2,-3.309999779E-2
2.582501719E1,-3.799999831E-3,-2.099999972E-2,-3.159999847E-2
2.585498750E1,2.499999851E-2,8.299999870E-3,-4.800000042E-2
2.587500938E1,-1.359999925E-2,3.769999743E-2,-1.779999956E-2
2.590501250E1,5.599999800E-3,4.749999940E-2,3.150000051E-2
2.593501406E1,-2.169999853E-2,-2.089999989E-2,-1.589999907E-2
2.596501563E1,2.520000003E-2,-3.079999983E-2,-1.569999941E-2
2.599501875E1,9.730000049E-2,1.769999973E-2,3.499999875E-3
2.602498906E1,8.449999988E-2,5.680000037E-2,-5.370000005E-2
2.604501094E1,4.319999740E-2,3.700000048E-2,-1.249999925E-2
2.607501250E1,1.063999981E-1,-1.819999889E-2,5.229999870E-2
2.610501562E1,4.309999943E-2,-7.729999721E-2,-6.199999712E-3
2.613501719E1,-1.569999941E-2,-2.829999849E-2,-5.089999735E-2
2.616498750E1,-7.180000097E-2,1.099999994E-2,-2.600000007E-3
2.618501094E1,-5.889999866E-2,-8.399999700E-3,3.539999947E-2
2.621501250E1,1.599999960E-3,-2.779999934E-2,3.189999983E-2
2.624501406E1,2.979999967E-2,-1.809999906E-2,1.129999943E-2
2.627501719E1,8.100000210E-3,1.109999977E-2,-1.679999940E-2
2.630501875E1,-1.129999943E-2,1.109999977E-2,-6.699999794E-3
2.633498906E1,-1.069999952E-2,-1.819999889E-2,-1.630000025E-2
2.635501094E1,1.789999940E-2,-8.399999700E-3,-2.499999851E-2
2.638501406E1,-2.399999881E-3,-1.829999872E-2,-2.339999937E-2
2.641501563E1,-5.719999969E-2,1.119999960E-2,-3.039999865E-2
2.644501719E1,-4.479999840E-2,-8.100000210E-3,-1.019999944E-2
2.647498750E1,-3.209999949E-2,2.129999921E-2,-2.769999951E-2
2.649501094E1,-5.879999697E-2,-7.799999788E-3,-4.519999772E-2
2.652501250E1,-1.314999908E-1,-1.730000041E-2,-3.469999880E-2
2.655501406E1,-1.384999901E-1,-1.659999974E-2,-5.089999735E-2
2.658501719E1,-5.590000004E-2,-7.519999892E-2,-4.910000041E-2
2.661501875E1,-6.129999831E-2,3.280000016E-2,-4.649999738E-2
2.664498906E1,-1.070999950E-1,-2.569999918E-2,-4.529999942E-2
2.666501094E1,-1.023999974E-1,-5.799999926E-3,4.799999762E-3
2.669501406E1,-1.388999969E-1,-1.719999872E-2,-3.150000051E-2
2.672501562E1,-1.317999959E-1,-7.559999824E-2,-2.919999883E-2
2.675501719E1,-6.480000168E-2,-1.620000042E-2,-2.549999952E-2
2.678498906E1,-6.329999864E-2,5.240000039E-2,3.179999813E-2
2.680501094E1,-8.909999579E-2,1.349999942E-2,2.999999933E-2
2.683501250E1,-1.649999991E-2,-5.480000004E-2,-2.709999867E-2
2.686501562E1,7.809999585E-2,1.349999942E-2,-2.549999952E-2
2.689501719E1,6.899999920E-3,1.329999976E-2,4.099999741E-2
2.692501875E1,2.709999867E-2,-1.041999981E-1,-1.909999922E-2
2.695498906E1,-2.599999867E-2,3.899999894E-3,-1.869999990E-2
2.697501094E1,-5.899999756E-3,-3.519999981E-2,6.999999750E-4
2.700501406E1,3.299999982E-3,-5.799999926E-3,-1.919999905E-2
2.703501563E1,-6.260000169E-2,-5.599999800E-3,1.819999889E-2
2.706501719E1,-4.079999775E-2,-1.519999932E-2,2.679999918E-2
2.709498906E1,-1.789999940E-2,-4.449999705E-2,-3.009999916E-2
2.711501094E1,-4.519999772E-2,-3.449999914E-2,-5.689999834E-2
2.714501250E1,-6.229999661E-2,-4.900000058E-3,-5.489999801E-2
2.717501562E1,-6.419999897E-2,-4.369999841E-2,-5.099999905E-2
2.720501719E1,-3.229999915E-2,-3.370000049E-2,-4.919999838E-2
2.723501719E1,-5.680000037E-2,5.699999630E-3,-5.269999802E-2
2.726498906E1,-6.279999763E-2,-2.329999954E-2,-2.190000005E-2
2.728501094E1,-7.959999889E-2,-3.499999875E-3,-1.109999977E-2
2.731501406E1,-9.189999849E-2,-2.259999886E-2,-2.889999934E-2
2.734501563E1,-4.019999877E-2,-2.239999920E-2,-8.899999782E-3
2.737501719E1,-4.609999806E-2,-2.499999944E-3,3.819999844E-2
2.740498906E1,-3.379999846E-2,-2.399999881E-3,-1.069999952E-2
2.742501094E1,3.700000001E-3,1.999999949E-4,3.999999899E-4
2.745501250E1,3.130000085E-2,-3.900000080E-2,1.199999941E-3
2.748501406E1,-3.749999776E-2,9.809999913E-2,4.839999974E-2
2.751501719E1,-1.081999987E-1,-2.869999968E-2,1.740000024E-2
2.754501875E1,2.950000018E-2,-8.999999613E-3,-4.079999775E-2
2.757498906E1,1.869999990E-2,1.040000003E-2,8.599999361E-3
2.759501094E1,2.719999850E-2,2.989999950E-2,4.580000043E-2
2.762501406E1,5.499999970E-2,-4.849999771E-2,3.350000083E-2
2.765501562E1,7.729999721E-2,9.699999355E-3,1.099999994E-2
2.768501719E1,7.379999757E-2,1.929999888E-2,1.139999926E-2
2.771498906E1,8.529999852E-2,4.820000008E-2,6.549999863E-2
2.773501094E1,9.089999646E-2,1.850000024E-2,9.079999477E-2
2.776501406E1,5.920000002E-2,2.809999883E-2,6.769999862E-2
2.779501562E1,5.359999835E-2,2.779999934E-2,6.000000052E-3
2.782501563E1,2.300000004E-2,2.769999951E-2,-1.200000010E-2
2.785498750E1,1.279999968E-2,-1.150000002E-2,1.740000024E-2
2.787500938E1,2.159999870E-2,-1.150000002E-2,-1.999999862E-3
2.790501250E1,5.999999703E-4,1.769999973E-2,-1.899999916E-3
2.793501406E1,4.999999655E-4,-1.169999968E-2,-2.829999849E-2
2.796501563E1,3.889999911E-2,-2.149999887E-2,-8.299999870E-3
2.799501719E1,7.989999652E-2,4.369999841E-2,1.159999985E-2
2.802498906E1,2.929999866E-2,3.379999846E-2,2.989999950E-2
2.804501094E1,9.699999355E-3,4.299999680E-3,3.879999742E-2
2.807501250E1,9.699999355E-3,4.299999680E-3,-2.070000023E-2
2.810501406E1,-5.999999703E-4,7.299999893E-2,1.850000024E-2
2.813501719E1,-2.999999851E-4,2.389999852E-2,8.399999700E-3
2.816498750E1,-6.999999750E-4,-5.399999674E-3,-2.939999849E-2
2.818500938E1,-9.200000204E-3,5.339999869E-2,-4.679999873E-2
2.821501250E1,1.979999989E-2,1.409999933E-2,-5.699999630E-3
2.824501406E1,1.049999986E-2,-2.489999868E-2,2.169999853E-2
2.827501562E1,-8.799999952E-3,5.339999869E-2,1.090000011E-2
2.830501875E1,-8.899999782E-3,4.360000044E-2,-8.200000040E-3
2.833498906E1,1.850000024E-2,2.389999852E-2,-6.999999750E-3
2.835501094E1,1.769999973E-2,4.199999850E-3,-6.699999794E-3
2.838501406E1,3.529999778E-2,3.350000083E-2,4.129999876E-2
2.841501563E1,-2.359999903E-2,1.389999967E-2,-1.679999940E-2
2.844501719E1,-1.319999993E-2,2.369999886E-2,-3.480000049E-2
2.847498750E1,-3.199999919E-3,3.350000083E-2,-1.219999976E-2
2.849500938E1,-2.649999969E-2,-3.830000013E-2,-1.200000010E-2
2.852501250E1,-5.499999970E-3,-6.759999692E-2,2.599999867E-2
2.855501406E1,-2.229999937E-2,-5.759999901E-2,-5.889999866E-2
2.858501562E1,8.599999361E-3,-5.749999732E-2,-4.690000042E-2
2.861501875E1,-1.500000013E-3,-4.769999906E-2,3.119999915E-2
2.864498906E1,-5.829999968E-2,-5.739999935E-2,-4.589999840E-2
2.866500938E1,-8.299999870E-3,-4.749999940E-2,-3.409999982E-2
2.869501406E1,-1.589999907E-2,-5.719999969E-2,-4.099999741E-2
2.872501562E1,2.279999852E-2,-3.759999946E-2,-1.960000023E-2
2.875501719E1,-1.640000008E-2,-2.779999934E-2,-3.579999879E-2
2.878498750E1,-4.799999762E-3,-6.689999998E-2,-3.509999812E-2
2.880500938E1,-4.499999806E-3,-2.769999951E-2,-3.359999880E-2
2.883501250E1,-1.310000010E-2,-7.669999450E-2,-5.799999833E-2
2.886501562E1,-1.319999993E-2,-2.759999968E-2,-2.730000019E-2
2.889501563E1,-1.139999926E-2,-5.700000003E-2,-2.499999851E-2
2.892501875E1,3.610000014E-2,-4.719999805E-2,-4.299999680E-3
2.895498906E1,4.179999977E-2,-2.789999917E-2,-4.059999809E-2
2.897501094E1,-1.599999890E-2,-4.749999940E-2,-2.009999938E-2
2.900501406E1,2.749999985E-2,-9.899999946E-3,-1.899999939E-2
2.903501563E1,3.480000049E-2,3.889999911E-2,-2.639999986E-2
2.906501719E1,-1.439999975E-2,9.499999695E-3,-6.099999882E-3
2.909498750E1,5.099999718E-3,-1.009999961E-2,-1.449999958E-2
2.911501094E1,3.309999779E-2,-3.999999899E-4,-3.260000050E-2
2.914501250E1,3.189999983E-2,5.829999968E-2,-1.239999942E-2
2.917501406E1,1.799999969E-3,-2.009999938E-2,2.599999867E-2
2.920501562E1,4.059999809E-2,1.899999939E-2,2.529999986E-2
2.923501875E1,-1.809999906E-2,2.879999951E-2,-1.260000002E-2
2.926498906E1,-2.679999918E-2,3.869999945E-2,2.529999986E-2
2.928501094E1,-2.520000003E-2,-1.989999972E-2,-4.699999932E-3
2.931501406E1,4.299999680E-3,9.399999864E-3,-4.699999932E-3
2.934501563E1,-1.599999890E-2,2.899999917E-2,-4.900000058E-3
2.937501719E1,-3.339999914E-2,9.499999695E-3,1.329999976E-2
2.940498750E1,-3.240000084E-2,9.599999525E-3,3.299999982E-3
2.942501094E1,-2.129999921E-2,1.950000040E-2,-1.589999907E-2
2.945501250E1,-2.809999883E-2,0.000000000E0,2.159999870E-2
2.948501406E1,-2.679999918E-2,9.899999946E-3,3.009999916E-2
2.951501562E1,-2.469999902E-2,4.930000007E-2,2.829999849E-2
2.954501875E1,-4.600000102E-3,1.989999972E-2,3.769999743E-2
2.957498906E1,-4.100000020E-3,-1.919999905E-2,1.740000024E-2
2.959501094E1,-1.339999959E-2,1.999999955E-2,2.599999867E-2
2.962501406E1,-3.999999724E-3,3.959999979E-2,2.359999903E-2
2.965501562E1,2.439999953E-2,-2.899999917E-2,2.109999955E-2
2.968501719E1,3.350000083E-2,3.949999809E-2,-7.400000002E-3
2.971498750E1,2.699999837E-3,3.940000013E-2,2.119999938E-2
2.973501094E1,2.139999904E-2,9.999999747E-5,1.090000011E-2
2.976501250E1,2.939999849E-2,-9.699999355E-3,-1.929999888E-2
2.979501406E1,1.860000007E-2,2.929999866E-2,1.399999950E-3
2.982501719E1,1.769999973E-2,2.929999866E-2,-1.819999889E-2
2.985501875E1,-1.999999949E-4,-3.849999979E-2,1.090000011E-2
2.988498906E1,2.789999917E-2,1.030000020E-2,1.040000003E-2
2.990501094E1,1.809999906E-2,-1.899999939E-2,-1.769999973E-2
2.993501250E1,3.549999744E-2,-9.300000034E-3,1.999999955E-2
2.996501563E1,-1.329999976E-2,1.019999944E-2,2.999999851E-4
2.999501719E1,-2.109999955E-2,-9.200000204E-3,2.799999900E-2
3.002498906E1,3.779999912E-2,4.999999655E-4,1.740000024E-2
3.004501094E1,7.599999662E-3,1.030000020E-2,-2.099999925E-3
3.007501250E1,-1.249999925E-2,-9.300000034E-3,-1.899999916E-3
3.010501563E1,6.799999624E-3,-2.889999934E-2,1.679999940E-2
3.013501719E1,3.359999880E-2,-9.399999864E-3,5.159999803E-2
3.016501875E1,1.299999934E-2,-1.929999888E-2,3.009999916E-2
3.019498906E1,-2.459999919E-2,-4.859999940E-2,1.809999906E-2
3.021501094E1,1.409999933E-2,-4.859999940E-2,-1.399999950E-3
3.024501406E1,1.310000010E-2,-2.909999900E-2,-2.049999870E-2
3.027501562E1,-5.189999938E-2,4.999999655E-4,6.430000067E-2
3.030501719E1,-8.889999986E-2,1.049999986E-2,8.999999613E-2
3.033498906E1,-9.999999311E-4,-9.999999311E-4,9.229999781E-2
3.035501094E1,6.480000168E-2,-5.020000041E-2,7.880000025E-2
3.038501250E1,8.029999584E-2,2.789999917E-2,1.909999922E-2
3.041501563E1,-1.860000007E-2,6.709999591E-2,3.590000048E-2
3.044501719E1,-3.749999776E-2,2.789999917E-2,2.499999851E-2
3.047501875E1,-3.439999744E-2,1.829999872E-2,3.229999915E-2
3.050498906E1,-6.209999695E-2,7.729999721E-2,4.959999770E-2
3.052501250E1,8.599999361E-3,2.840000018E-2,9.499999695E-3
3.055501406E1,6.409999728E-2,2.819999866E-2,1.850000024E-2
3.058501562E1,5.989999697E-2,3.779999912E-2,4.490000010E-2
3.061501719E1,7.369999588E-2,4.719999805E-2,4.109999910E-2
3.064498906E1,7.209999859E-2,7.899999619E-3,2.060000040E-2
3.066501094E1,-7.299999706E-3,2.740000002E-2,4.820000008E-2
3.069501250E1,-4.360000044E-2,1.789999940E-2,4.409999773E-2
3.072501406E1,-1.219999976E-2,-1.129999943E-2,1.349999942E-2
3.075501719E1,2.489999868E-2,4.729999974E-2,-5.199999735E-2
3.078498750E1,-1.449999958E-2,1.779999956E-2,-5.009999871E-2
3.080501094E1,-4.100000020E-3,-2.129999921E-2,-4.959999770E-2
3.083501250E1,5.999999703E-4,1.999999949E-4,-3.519999981E-2
3.086501406E1,-7.509999722E-2,-3.879999742E-2,-4.219999909E-2
3.089501563E1,-6.909999996E-2,-8.999999613E-3,-5.609999970E-2
3.092501719E1,1.840000041E-2,-2.869999968E-2,-1.519999932E-2
3.095498906E1,3.399999812E-2,1.019999944E-2,4.999999702E-2
3.097501094E1,3.249999881E-2,2.999999851E-4,2.899999917E-2
3.100501250E1,3.109999932E-2,-1.929999888E-2,7.199999876E-3
3.103501406E1,4.710000008E-2,-9.799999744E-2,-1.899999916E-3
3.106501719E1,6.520000100E-2,-1.960000023E-2,1.630000025E-2
3.109498750E1,3.379999846E-2,-5.889999866E-2,1.409999933E-2
3.111500938E1,2.300000004E-2,-3.940000013E-2,4.160000011E-2
3.114501250E1,2.399999881E-3,2.909999900E-2,1.399999950E-3
3.117501406E1,-2.529999986E-2,-3.929999843E-2,1.599999960E-3
3.120501562E1,-1.469999924E-2,-4.910000041E-2,1.500000013E-3
3.123501875E1,2.290000021E-2,-1.979999989E-2,-7.100000046E-3
3.126498906E1,2.300000051E-3,-3.940000013E-2,3.999999911E-2
3.128501094E1,2.799999900E-3,-3.940000013E-2,5.819999799E-2
3.131501406E1,-1.509999949E-2,-2.950000018E-2,-1.109999977E-2
3.134501563E1,3.499999875E-3,-3.999999899E-4,-1.599999960E-3
3.137501719E1,-1.399999950E-2,-5.909999833E-2,4.409999773E-2
3.140498750E1,-3.130000085E-2,-9.999999747E-5,5.279999971E-2
3.142500938E1,-4.999999655E-4,-2.939999849E-2,5.089999735E-2
3.145501250E1,1.829999872E-2,0.000000000E0,0.000000000E0
3.148501406E1,2.789999917E-2,-4.910000041E-2,-9.699999355E-3
3.151501719E1,6.699999794E-3,2.919999883E-2,6.520000100E-2
3.154501875E1,-1.219999976E-2,-4.910000041E-2,9.009999782E-2
3.157498906E1,1.789999940E-2,-2.939999849E-2,1.789999940E-2
3.159501094E1,-1.500000013E-3,-1.960000023E-2,-2.029999904E-2
3.162501406E1,2.620000020E-2,-9.899999946E-3,5.719999969E-2
3.165501562E1,3.339999914E-2,-2.960000001E-2,8.039999753E-2
3.168501563E1,7.000000030E-2,-2.969999984E-2,9.899999946E-3
3.171498750E1,7.429999858E-2,-1.049999986E-2,9.899999946E-3
3.173501094E1,6.169999763E-2,-2.049999870E-2,1.879999973E-2
3.176501250E1,1.199999941E-3,-4.999999702E-2,1.879999973E-2
3.179501406E1,7.999999798E-4,-9.999999311E-4,7.400000002E-3
3.182501563E1,1.009999961E-2,-1.079999935E-2,-3.000000026E-3
3.185501875E1,-1.759999990E-2,-3.830000013E-2,-2.129999921E-2
3.188498906E1,-5.200000014E-3,-5.779999867E-2,-4.979999736E-2
3.190501094E1,-4.499999806E-3,-5.769999698E-2,-3.869999945E-2
3.193501406E1,1.439999975E-2,-1.860000007E-2,-3.539999947E-2
3.196501563E1,-3.390000015E-2,-3.810000047E-2,-6.599999964E-3
3.199501719E1,-4.899999872E-2,-4.769999906E-2,-2.439999953E-2
3.202498906E1,-7.999999449E-3,-2.799999900E-2,-3.179999813E-2
3.204501094E1,1.699999906E-3,1.300000004E-3,-2.190000005E-2
3.207501250E1,1.109999977E-2,-4.759999737E-2,1.529999916E-2
3.210501406E1,1.069999952E-2,-5.739999935E-2,-3.700000001E-3
3.213501719E1,-9.599999525E-3,1.199999941E-3,-2.129999921E-2
3.216501875E1,-1.840000041E-2,-5.739999935E-2,3.839999810E-2
3.219498906E1,1.599999960E-3,-1.819999889E-2,-1.009999961E-2
3.221501094E1,-1.699999906E-2,-2.789999917E-2,8.999999613E-3
3.224501406E1,-6.499999668E-3,1.399999950E-3,8.200000040E-3
3.227501562E1,1.339999959E-2,-8.669999987E-2,-1.040000003E-2
3.230501719E1,2.269999869E-2,-4.749999940E-2,-1.040000003E-2
3.233498750E1,5.869999900E-2,3.299999982E-3,2.730000019E-2
3.235501094E1,0.000000000E0,-4.559999704E-2,2.609999850E-2
3.238501250E1,-2.909999900E-2,-7.499999553E-2,2.449999936E-2
3.241501406E1,-1.730000041E-2,-7.490000129E-2,-2.449999936E-2
3.244501562E1,3.079999983E-2,-1.609999873E-2,1.439999975E-2
3.247501875E1,9.699999355E-3,-5.539999902E-2,2.249999903E-2
3.250498906E1,3.940000013E-2,-5.539999902E-2,2.229999937E-2
3.252501094E1,7.750000060E-2,-4.559999704E-2,2.259999886E-2
3.255501406E1,6.300000008E-3,-3.599999845E-2,5.040000007E-2
3.257504219E1,-2.199999988E-2,-6.499999668E-3,3.879999742E-2
3.260500625E1,1.819999889E-2,-7.509999722E-2,9.300000034E-3
3.263500781E1,4.509999976E-2,-4.580000043E-2,-1.019999944E-2
3.266500938E1,1.429999992E-2,-3.610000014E-2,2.889999934E-2
3.269501250E1,-2.419999987E-2,-4.580000043E-2,1.740000024E-2
3.272501406E1,-1.279999968E-2,-8.500000089E-2,-1.059999969E-2
3.275501719E1,5.599999800E-3,-3.599999845E-2,0.000000000E0
3.278501875E1,-4.169999808E-2,-7.509999722E-2,-3.999999899E-4
3.281498906E1,-9.599999525E-3,-4.549999908E-2,-3.999999899E-4
3.283501094E1,8.399999700E-3,5.999999703E-4,-9.599999525E-3
3.286501406E1,-1.139999926E-2,-1.889999956E-2,-2.029999904E-2
3.289501562E1,-2.850000001E-2,-6.780000031E-2,-1.009999961E-2
3.292501719E1,-2.759999968E-2,-2.850000001E-2,-9.699999355E-3
3.295498906E1,1.199999941E-3,7.999999798E-4,-9.300000034E-3
3.297501094E1,-7.999999449E-3,-2.850000001E-2,1.909999922E-2
3.300501250E1,2.180000022E-2,-3.830000013E-2,1.909999922E-2
3.303501406E1,1.030000020E-2,-8.999999613E-3,-2.899999917E-2
3.306501719E1,-6.999999750E-4,-1.889999956E-2,-8.100000210E-3
3.309501875E1,-8.899999782E-3,-4.820000008E-2,9.499999695E-3
3.312498906E1,-2.850000001E-2,-3.839999810E-2,-9.599999525E-3
3.314501250E1,-7.199999876E-3,1.069999952E-2,-1.989999972E-2
3.317501406E1,1.169999968E-2,-8.799999952E-3,5.509999767E-2
3.320501562E1,2.080000006E-2,-6.769999862E-2,3.379999846E-2
3.323501719E1,-2.999999851E-4,-2.859999985E-2,3.130000085E-2
3.326498906E1,-1.399999950E-3,-4.829999804E-2,3.109999932E-2
3.328501094E1,7.699999958E-3,-5.810000002E-2,5.790000036E-2
3.331501250E1,2.549999952E-2,-9.099999443E-3,3.449999914E-2
3.334501562E1,5.399999674E-3,-4.069999978E-2,3.280000016E-2
3.337501719E1,3.229999915E-2,-1.150000002E-2,2.199999988E-3
3.340501875E1,2.369999886E-2,-4.079999775E-2,5.920000002E-2
3.343498906E1,1.310000010E-2,8.200000040E-3,3.489999846E-2
3.345501094E1,2.199999988E-2,-2.119999938E-2,4.270000011E-2
3.348501406E1,4.030000046E-2,1.789999940E-2,2.209999971E-2
3.351501563E1,1.999999949E-4,-3.109999932E-2,3.889999911E-2
3.354501719E1,5.829999968E-2,-5.069999769E-2,8.489999920E-2
3.357589375E1,4.439999908E-2,1.769999973E-2,7.750000060E-2
3.360499062E1,-5.299999844E-3,-1.799999969E-3,6.509999931E-2
3.362501250E1,1.489999983E-2,-3.109999932E-2,8.049999923E-2
3.365501406E1,-4.299999680E-3,-5.059999973E-2,7.469999790E-2
3.368501719E1,-1.459999941E-2,-6.039999798E-2,5.130000040E-2
3.371498750E1,-2.219999954E-2,-3.079999983E-2,1.059999969E-2
3.373500938E1,6.799999624E-3,8.299999870E-3,7.999999798E-4
3.376501250E1,-3.049999848E-2,1.819999889E-2,3.779999912E-2
3.379501406E1,-3.720000014E-2,-4.019999877E-2,7.039999962E-2
3.382501562E1,-3.519999981E-2,2.850000001E-2,1.960000023E-2
3.385501875E1,-1.189999934E-2,-4.109999910E-2,3.559999913E-2
3.388498906E1,-1.150000002E-2,-9.989999980E-2,5.269999802E-2
3.390501094E1,8.299999870E-3,-8.020000160E-2,6.049999967E-2
3.393501250E1,2.559999935E-2,-1.799999969E-3,5.689999834E-2
3.396501406E1,-4.270000011E-2,-5.079999939E-2,4.459999874E-2
3.399501719E1,-1.999999862E-3,-7.029999793E-2,1.370000001E-2
3.402498750E1,7.899999619E-3,-1.599999960E-3,1.339999959E-2
3.404501094E1,1.779999956E-2,8.100000210E-3,3.150000051E-2
3.407501250E1,9.099999443E-3,-1.092999950E-1,2.740000002E-2
3.410501406E1,2.759999968E-2,-4.069999978E-2,1.620000042E-2
3.413501562E1,-1.090000011E-2,-1.399999950E-3,2.499999851E-2
3.416501719E1,-2.089999989E-2,-8.969999850E-2,4.169999808E-2
3.419498906E1,3.590000048E-2,-9.950000048E-2,-8.899999782E-3
3.421501094E1,3.439999744E-2,-1.139999926E-2,-1.789999940E-2
3.424501250E1,5.249999836E-2,-2.129999921E-2,5.189999938E-2
3.427501406E1,2.190000005E-2,-1.096000001E-1,2.889999934E-2
3.430501719E1,3.929999843E-2,7.899999619E-3,2.669999935E-2
3.433498750E1,1.111999974E-1,-6.099999696E-2,7.079999894E-2
3.435500938E1,1.344999969E-1,-4.169999808E-2,7.699999958E-2
3.438501250E1,4.219999909E-2,-2.600000007E-3,5.799999926E-3
3.441501406E1,-7.949999720E-2,-4.160000011E-2,-3.049999848E-2
3.444501562E1,6.589999795E-2,-9.059999883E-2,1.791999936E-1
3.447501875E1,4.129999876E-2,-1.395999938E-1,1.536999941E-1
3.450498906E1,8.789999783E-2,-4.149999842E-2,7.009999454E-2
3.452501094E1,1.134999990E-1,-3.189999983E-2,5.849999934E-2
3.455501406E1,1.413999945E-1,-1.279999968E-2,7.090000063E-2
3.458501563E1,8.519999683E-2,-7.199999690E-2,1.177999973E-1
3.461501719E1,9.339999408E-2,-4.289999977E-2,2.425999939E-1
3.464498750E1,6.079999730E-2,-3.309999779E-2,2.836999893E-1
3.466501094E1,4.769999906E-2,-3.299999982E-2,2.531000078E-1
3.469501250E1,1.351999938E-1,-1.114999950E-1,2.452999949E-1
3.472501406E1,3.386999965E-1,-1.709999889E-1,1.754999906E-1
3.475501562E1,2.366999984E-1,-1.528999954E-1,-5.319999903E-2
3.478501875E1,-1.772999913E-1,2.219999954E-2,-1.850999892E-1
3.481498906E1,-4.184999764E-1,-7.589999586E-2,-3.689999878E-2
3.483501094E1,-2.788999975E-1,-1.545999944E-1,-1.939999871E-2
3.486501406E1,-1.009999961E-1,2.129999921E-2,-1.310999990E-1
3.489501406E1,-4.559999704E-2,-6.650000066E-2,-2.685000002E-1
3.492501719E1,1.198999956E-1,-2.709999867E-2,-3.366000056E-1
3.495498750E1,1.692999899E-1,-7.710000128E-2,-1.875000000E-1
3.497501094E1,1.441999972E-1,-9.719999880E-2,-9.519999474E-2
3.500501250E1,3.869999945E-2,-4.869999737E-2,-4.319999740E-2
3.503501406E1,-5.969999731E-2,-7.840000093E-2,-1.338000000E-1
3.506501719E1,-4.569999874E-2,-1.939999871E-2,-1.121999994E-1
3.509501875E1,-5.659999698E-2,-4.839999974E-2,1.509999949E-2
3.512498906E1,3.579999879E-2,4.979999736E-2,1.429999992E-2
3.514501094E1,1.241999939E-1,8.909999579E-2,-3.729999810E-2
3.517501406E1,1.409999933E-2,1.086999997E-1,-3.689999878E-2
3.520501562E1,-1.809999943E-1,-1.357000023E-1,6.140000001E-2
3.523501719E1,-1.840000041E-2,-8.549999446E-2,-1.477999985E-1
3.526498906E1,-4.189999774E-2,-1.730999947E-1,-2.232999951E-1
3.528501094E1,-5.680000037E-2,-1.332999915E-1,-1.274999976E-1
3.531501094E1,-4.149999842E-2,1.429999992E-2,-3.790000081E-2
3.534501406E1,2.840000018E-2,4.999999888E-3,-1.421999931E-1
3.537501719E1,-5.089999735E-2,-7.270000130E-2,-1.891999990E-1
3.540501719E1,-9.699999541E-2,-3.280000016E-2,-1.369999945E-1
3.543498906E1,-2.225999981E-1,-2.960999906E-1,-1.173999980E-1
3.545501094E1,-6.430000067E-2,-2.368000001E-1,-6.430000067E-2
3.548501406E1,1.057999954E-1,-9.919999540E-2,-1.020999998E-1
3.551501563E1,5.439999700E-2,-2.272000015E-1,-9.719999880E-2
3.554501719E1,-2.049999870E-2,1.149999946E-1,-4.089999944E-2
3.557498906E1,-2.913999856E-1,2.617999911E-1,6.939999759E-2
3.559501094E1,-3.542000055E-1,-4.179999977E-2,6.759999692E-2
3.562501250E1,-2.190000005E-2,-1.589999944E-1,1.919999905E-2
3.565501406E1,2.689999938E-1,6.629999727E-2,5.719999969E-2
3.568501719E1,2.122999877E-1,7.580000162E-2,1.024999991E-1
3.571501875E1,7.029999793E-2,-7.189999521E-2,1.930999905E-1
3.574498906E1,-7.599999756E-2,-8.199999481E-2,2.070999891E-1
3.576501094E1,-1.819999963E-1,1.599999890E-2,9.730000049E-2
3.579501406E1,-1.909999996E-1,3.590000048E-2,4.189999774E-2
3.582501562E1,-9.739999473E-2,-3.199999919E-3,9.269999713E-2
3.585501719E1,-2.699999837E-3,-1.013000011E-1,8.119999617E-2
3.588498906E1,3.059999831E-2,-3.269999847E-2,1.279999968E-2
3.590501094E1,2.119999938E-2,4.549999908E-2,-3.119999915E-2
3.593501250E1,6.199999712E-3,-3.319999948E-2,-3.289999813E-2
3.596501562E1,-1.144999936E-1,1.559999958E-2,-2.499999944E-3
3.599501719E1,-1.588999927E-1,-7.220000029E-2,3.159999847E-2
3.602501875E1,1.189999934E-2,-7.239999622E-2,-6.089999899E-2
3.605498906E1,1.939999871E-2,-7.259999961E-2,-8.240000159E-2
3.607501250E1,0.000000000E0,-5.309999734E-2,-7.499999832E-3
3.610501406E1,4.079999775E-2,-9.239999950E-2,4.499999806E-2
3.613501562E1,1.634999961E-1,-1.321000010E-1,-9.899999946E-3
3.616501719E1,9.149999917E-2,-1.449999958E-2,-2.699999884E-2
3.619498906E1,4.779999703E-2,-2.449999936E-2,4.279999807E-2
3.621501094E1,8.219999820E-2,-5.200000014E-3,2.249999903E-2
3.624501250E1,5.819999799E-2,-1.539999992E-2,-5.109999701E-2
3.627501406E1,8.229999989E-2,1.339999959E-2,-2.859999985E-2
3.630501719E1,3.469999880E-2,-3.579999879E-2,2.539999969E-2
3.633501875E1,-4.339999706E-2,3.099999856E-3,-3.359999880E-2
3.636498906E1,5.899999756E-3,-4.619999975E-2,-1.199999941E-3
3.638501250E1,6.289999932E-2,-4.639999941E-2,-6.199999712E-3
3.641501406E1,3.029999882E-2,-3.709999844E-2,7.299999706E-3
3.644501562E1,3.209999949E-2,-7.660000026E-2,4.580000043E-2
3.647501719E1,8.789999783E-2,-1.752000004E-1,-1.030000020E-2
3.650498906E1,8.869999647E-2,-3.799999878E-2,-3.099999949E-2
3.652501094E1,9.849999845E-2,-7.729999721E-2,3.339999914E-2
3.655501250E1,8.309999853E-2,-1.070999950E-1,4.899999872E-2
3.658501406E1,4.930000007E-2,-2.879999951E-2,3.159999847E-2
3.661501719E1,-3.489999846E-2,1.040000003E-2,4.470000044E-2
3.664498750E1,-4.399999976E-2,-2.869999968E-2,4.169999808E-2
3.666500938E1,-2.329999954E-2,5.999999703E-4,6.199999712E-3
3.669501250E1,-6.749999523E-2,5.949999765E-2,-5.299999937E-2
3.672501406E1,-1.208999977E-1,-4.809999838E-2,1.300000004E-3
3.675501563E1,-1.211999953E-1,-1.065999940E-1,-1.219999976E-2
3.678501875E1,-6.909999996E-2,-5.749999732E-2,-1.359999925E-2
3.681498906E1,4.799999762E-3,-1.259000003E-1,4.279999807E-2
3.683501094E1,5.649999902E-2,-1.159999967E-1,7.229999453E-2
3.686501406E1,1.555999964E-1,-4.739999771E-2,1.504999995E-1
3.689501562E1,1.273999959E-1,-7.729999721E-2,1.375000030E-1
3.692501719E1,5.269999802E-2,-8.999999613E-3,1.013999954E-1
3.695498750E1,-4.580000043E-2,5.999999703E-4,1.642999947E-1
3.697500938E1,-9.129999578E-2,-8.739999682E-2,1.342999935E-1
3.700501250E1,-5.240000039E-2,-8.739999682E-2,3.779999912E-2
3.703501406E1,-9.999999747E-5,-2.840000018E-2,3.539999947E-2
3.706501562E1,-1.609999873E-2,-7.719999552E-2,7.440000027E-2
3.709501719E1,-9.999999311E-4,-1.160999984E-1,6.300000101E-2
3.712498906E1,-4.800000042E-2,-6.689999998E-2,-1.379999984E-2
3.714501094E1,-7.449999452E-2,-7.660000026E-2,3.570000082E-2
3.717501250E1,-6.169999763E-2,-1.759999990E-2,2.239999920E-2
3.720501562E1,-1.213999987E-1,1.169999968E-2,5.979999900E-2
3.723501719E1,-6.650000066E-2,-4.669999704E-2,6.549999863E-2
3.726498906E1,-5.429999903E-2,-3.669999912E-2,3.059999831E-2
3.728500938E1,-3.299999982E-2,-6.610000134E-2,7.899999619E-3
3.731501250E1,6.289999932E-2,-6.619999558E-2,-1.769999973E-2
3.734501406E1,4.319999740E-2,-7.599999756E-2,-2.109999955E-2
3.737501875E1,3.390000015E-2,-6.610000134E-2,-3.399999812E-3
3.740501875E1,7.719999552E-2,-4.619999975E-2,-9.200000204E-3
3.743498906E1,7.220000029E-2,-1.709999889E-2,-5.049999803E-2
3.745501094E1,1.069999952E-2,-1.152999997E-1,-5.739999935E-2
3.748501406E1,-2.559999935E-2,-7.589999586E-2,-4.769999906E-2
3.751501563E1,-9.609999508E-2,1.269999985E-2,-9.499999695E-3
3.754501719E1,-2.199999988E-2,3.199999919E-3,-4.399999976E-3
3.757498750E1,9.800000116E-3,-9.459999949E-2,-6.899999920E-3
3.759500938E1,1.299999934E-2,-1.140000001E-1,-9.899999946E-3
3.762501250E1,-1.799999969E-3,-3.519999981E-2,-1.339999959E-2
3.765501406E1,-4.649999738E-2,-5.460000038E-2,-2.300000051E-3
3.768501563E1,-1.159999985E-2,-3.460000083E-2,-2.679999918E-2
3.771501875E1,6.669999659E-2,-7.379999757E-2,-1.850000024E-2
3.774498906E1,7.909999788E-2,-5.399999768E-2,-5.920000002E-2
3.776501094E1,3.059999831E-2,-6.379999965E-2,-4.669999704E-2
3.779501406E1,4.759999737E-2,-4.439999908E-2,-3.739999980E-2
3.782501562E1,2.659999952E-2,-1.509999949E-2,7.899999619E-3
3.785501719E1,-2.389999852E-2,-5.449999869E-2,1.449999958E-2
3.788498750E1,2.239999920E-2,-7.429999858E-2,-6.399999838E-3
3.790501094E1,3.170000017E-2,-5.469999835E-2,-1.399999950E-2
3.793501250E1,5.020000041E-2,-5.799999926E-3,-2.969999984E-2
3.796501406E1,2.049999870E-2,-5.480000004E-2,2.139999904E-2
3.799501719E1,8.599999361E-3,-1.039999947E-1,-2.209999971E-2
3.802501875E1,-9.300000034E-3,-4.499999806E-2,-3.039999865E-2
3.805498906E1,1.399999950E-3,-1.559999958E-2,-2.620000020E-2
3.807501094E1,-1.769999973E-2,-5.480000004E-2,-3.599999938E-3
3.810501406E1,-9.599999525E-3,-4.509999976E-2,-2.740000002E-2
3.813501562E1,-3.669999912E-2,-2.529999986E-2,-1.599999890E-2
3.816501719E1,2.499999944E-3,-6.459999830E-2,-1.699999906E-3
3.819498750E1,-1.679999940E-2,-9.399999678E-2,-4.649999738E-2
3.821500938E1,1.129999943E-2,-3.519999981E-2,-1.319999993E-2
3.824501250E1,-7.499999832E-3,3.999999724E-3,8.700000122E-3
3.827501406E1,1.209999993E-2,-6.459999830E-2,-1.999999862E-3
3.830501562E1,3.059999831E-2,-2.539999969E-2,8.299999870E-3
3.833501875E1,-4.589999840E-2,-3.509999812E-2,-1.799999969E-3
3.836499063E1,2.239999920E-2,-5.469999835E-2,1.669999957E-2
3.838501094E1,1.219999976E-2,3.999999724E-3,6.199999712E-3
3.841501406E1,-1.559999958E-2,-5.469999835E-2,5.699999630E-3
3.844501562E1,-2.740000002E-2,-3.109999932E-2,-2.279999852E-2
3.847501719E1,-3.500000015E-2,1.789999940E-2,3.419999778E-2
3.850498906E1,2.389999852E-2,8.100000210E-3,4.339999706E-2
3.852501094E1,3.240000084E-2,-3.109999932E-2,5.999999866E-2
3.855501250E1,2.929999866E-2,5.689999834E-2,-1.099999994E-2
3.858501406E1,-8.799999952E-3,-1.159999985E-2,-4.859999940E-2
3.861501719E1,1.090000011E-2,-6.059999764E-2,1.500000013E-3
3.864501875E1,-2.769999951E-2,-4.099999741E-2,1.399999950E-3
3.867498906E1,-3.370000049E-2,8.200000040E-3,-1.579999924E-2
3.869501250E1,-3.229999915E-2,8.299999870E-3,-3.390000015E-2
3.872501406E1,-2.229999937E-2,2.789999917E-2,-2.339999937E-2
3.875501563E1,-6.709999591E-2,8.599999361E-3,-7.819999754E-2
3.878501719E1,2.219999954E-2,-1.090000011E-2,-1.759999990E-2
3.881498750E1,-3.519999981E-2,1.860000007E-2,2.499999944E-3
3.883501094E1,-7.129999995E-2,1.879999973E-2,-2.569999918E-2
3.886501250E1,-4.910000041E-2,-2.019999921E-2,-2.630000003E-2
3.889501562E1,1.009999961E-2,1.889999956E-2,-1.509999949E-2
3.892501719E1,-6.999999750E-3,-3.999999899E-4,-1.480000000E-2
3.895501875E1,-1.609999873E-2,-4.939999804E-2,-4.499999806E-3
3.898498906E1,-1.599999890E-2,-4.939999804E-2,1.469999924E-2
3.900501094E1,-5.799999926E-3,9.300000034E-3,-4.100000020E-3
3.903501406E1,-1.459999941E-2,-2.969999984E-2,-2.600000007E-3
3.906501562E1,-5.299999844E-3,-4.939999804E-2,1.620000042E-2
3.909501719E1,-5.799999926E-3,-5.920000002E-2,-3.000000026E-3
3.912498906E1,4.299999774E-2,-1.999999955E-2,6.399999838E-3
3.914501094E1,3.199999919E-3,-3.959999979E-2,-3.999999724E-3
3.917501250E1,-6.000000052E-3,-5.920000002E-2,4.799999762E-3
3.920501562E1,2.319999970E-2,-4.939999804E-2,1.389999967E-2
3.923501719E1,2.109999955E-2,-3.969999775E-2,1.359999925E-2
3.926501875E1,6.799999624E-2,-1.049999986E-2,2.999999933E-2
3.929498906E1,8.020000160E-2,8.599999361E-3,4.659999907E-2
3.931501250E1,5.799999833E-2,-1.300000004E-3,5.399999768E-2
3.934501406E1,-5.999999703E-4,-6.989999861E-2,3.159999847E-2
3.937501562E1,-2.759999968E-2,-3.049999848E-2,1.009999961E-2
3.940501719E1,-6.799999624E-3,-5.009999871E-2,-9.999999747E-5
3.943498906E1,2.799999900E-2,9.599999525E-3,-9.999999747E-5
3.945501094E1,-1.300000004E-3,2.919999883E-2,-1.879999973E-2
3.948501250E1,-2.099999972E-2,3.900000080E-2,6.999999750E-4
3.951501406E1,-3.659999743E-2,-9.599999525E-3,-1.759999990E-2
3.954501719E1,-5.519999936E-2,3.940000013E-2,-1.719999872E-2
3.957498750E1,-6.939999759E-2,2.989999950E-2,-4.380000010E-2
3.959501094E1,-3.830000013E-2,2.999999933E-2,-4.189999774E-2
3.962501250E1,-5.489999801E-2,-2.850000001E-2,-4.089999944E-2
3.965501406E1,-4.089999944E-2,2.070000023E-2,-5.769999698E-2
3.968501563E1,-1.999999955E-2,3.059999831E-2,-3.519999981E-2
3.971501875E1,-8.999999613E-3,3.059999831E-2,-2.269999869E-2
3.974498906E1,-1.759999990E-2,4.050000012E-2,-2.219999954E-2
3.976501094E1,-3.649999946E-2,1.300000004E-3,-3.009999916E-2
3.979501250E1,-5.599999800E-3,-8.299999870E-3,-9.200000204E-3
3.982501563E1,-5.499999970E-3,6.030000001E-2,4.999999655E-4
3.985501719E1,1.299999934E-2,2.099999972E-2,-1.819999889E-2
3.988498750E1,1.209999993E-2,-1.819999889E-2,-2.630000003E-2
3.990500938E1,-8.399999700E-3,-8.399999700E-3,-6.399999559E-2
3.993501094E1,2.009999938E-2,2.999999933E-2,-2.600000007E-3
3.996501406E1,0.000000000E0,1.040000003E-2,8.100000210E-3
3.999501562E1,-1.879999973E-2,2.999999933E-2,-2.060000040E-2
4.002501875E1,-8.499999531E-3,6.999999750E-4,-1.030000020E-2
4.005498906E1,4.589999840E-2,3.999999899E-4,-2.859999985E-2
4.007501094E1,3.460000083E-2,-2.899999917E-2,1.009999961E-2
4.010501406E1,2.319999970E-2,5.900000036E-2,-2.779999934E-2
4.013501562E1,-1.499999966E-2,2.999999851E-4,-6.199999712E-3
4.016501719E1,1.409999933E-2,-9.499999695E-3,1.359999925E-2
4.019498750E1,-1.480000000E-2,1.009999961E-2,-1.439999975E-2
4.021500938E1,4.499999806E-3,2.999999851E-4,1.429999992E-2
4.024501250E1,1.409999933E-2,1.999999949E-4,3.329999745E-2
4.027501406E1,-2.449999936E-2,1.009999961E-2,-2.449999936E-2
4.030501562E1,4.999999888E-3,2.999999851E-4,-4.259999841E-2
4.033501875E1,-4.239999875E-2,1.019999944E-2,-2.060000040E-2
4.036498906E1,-1.069999952E-2,-5.819999799E-2,1.679999940E-2
4.038502656E1,1.929999888E-2,-6.799999624E-2,-2.499999944E-3
4.041501250E1,3.509999812E-2,3.959999979E-2,-3.039999865E-2
4.044501562E1,-9.939999878E-2,3.979999945E-2,-2.899999917E-2
4.047501719E1,-9.959999472E-2,-8.599999361E-3,-1.789999940E-2
4.050498750E1,-3.810000047E-2,5.040000007E-2,-7.369999588E-2
4.052500938E1,-4.580000043E-2,1.129999943E-2,-7.889999449E-2
4.055501250E1,1.289999951E-2,5.059999973E-2,-7.159999758E-2
4.058501406E1,-2.669999935E-2,8.980000019E-2,-5.819999799E-2
4.061501563E1,-8.039999753E-2,8.039999753E-2,-9.979999810E-2
4.064501719E1,-6.769999862E-2,-1.740000024E-2,-1.035999954E-1
4.067498906E1,-8.139999956E-2,-3.649999946E-2,-1.178999990E-1
4.069501094E1,-8.779999614E-2,-6.899999920E-3,-9.269999713E-2
4.072501406E1,-9.470000118E-2,2.249999903E-2,-4.549999908E-2
4.075501563E1,-3.899999894E-3,-9.489999712E-2,-3.119999915E-2
4.078501719E1,7.299999893E-2,1.269999985E-2,-4.490000010E-2
4.081498750E1,-2.549999952E-2,-7.549999654E-2,1.620000042E-2
4.083501094E1,1.699999906E-3,-1.147999987E-1,8.479999751E-2
4.086501250E1,9.659999609E-2,7.119999826E-2,1.523000002E-1
4.089501562E1,7.039999962E-2,3.150000051E-2,1.334999949E-1
4.092501562E1,3.319999948E-2,1.485999972E-1,1.299999952E-1
4.095501875E1,-1.169999968E-2,1.099999994E-3,3.909999877E-2
4.098498906E1,-1.724999994E-1,1.674999893E-1,2.149999887E-2
4.100501094E1,-1.419000030E-1,2.361999899E-1,-5.319999903E-2
4.103501406E1,1.907999963E-1,-1.565999985E-1,4.270000011E-2
4.106501562E1,6.007999778E-1,-2.657999992E-1,1.882999986E-1
4.109501719E1,6.015999913E-1,-9.139999747E-2,1.655000001E-1
4.112498906E1,4.080999792E-1,-6.300000101E-2,-3.159999847E-2
4.114501094E1,2.136999965E-1,-4.449999705E-2,-1.090000011E-2
4.117501250E1,-3.099999856E-3,8.179999888E-2,1.942999959E-1
4.120501406E1,-2.626999915E-1,1.305000037E-1,-8.499999531E-3
4.123501719E1,-1.588999927E-1,-1.569999941E-2,-9.699999355E-3
4.126501719E1,1.359999925E-1,1.370000001E-2,-2.579999901E-2
4.129498906E1,1.753000021E-1,-7.499999553E-2,-3.199999919E-3
4.131501250E1,1.616999954E-1,-1.241999939E-1,-4.030000046E-2
4.134501406E1,4.470000044E-2,-1.045999974E-1,-3.509999812E-2
4.137501562E1,-7.289999723E-2,-1.339000016E-1,3.009999916E-2
4.140501719E1,-4.930000007E-2,-1.630000025E-1,1.604000032E-1
4.143498906E1,-9.579999745E-2,1.612999886E-1,2.798999846E-1
4.145501094E1,-1.476999968E-1,2.500000000E-1,3.154999912E-1
4.148501250E1,-2.996999919E-1,1.525000036E-1,1.928000003E-1
4.151501406E1,-4.294999838E-1,1.339000016E-1,-1.529999916E-2
4.154501719E1,-4.027999938E-1,1.735000014E-1,-1.270000041E-1
4.157501875E1,-1.608999968E-1,-8.049999923E-2,-1.356000006E-1
4.160498906E1,2.109999955E-2,-1.292999983E-1,-2.784999907E-1
4.162501094E1,1.022999957E-1,-6.039999798E-2,-3.319000006E-1
4.165501406E1,9.579999745E-2,5.709999800E-2,-2.027999908E-1
4.168501563E1,-7.100000046E-3,3.729999810E-2,-8.329999447E-2
4.171501719E1,-4.470000044E-2,-1.139999926E-2,-3.859999776E-2
4.174498906E1,6.030000001E-2,-1.300000004E-3,-6.179999933E-2
4.176501094E1,1.482999921E-1,-1.300000004E-3,6.000000052E-3
4.179501250E1,1.799999923E-1,1.059999987E-1,6.000000052E-3
4.182501406E1,6.069999933E-2,5.689999834E-2,-5.099999905E-2
4.185501719E1,-1.069999952E-2,-1.588999927E-1,2.669999935E-2
4.188501875E1,1.573999971E-1,-9.999999404E-2,1.398999989E-1
4.191498906E1,1.327999979E-1,1.349999905E-1,3.799999878E-2
4.193501094E1,7.899999619E-3,1.253999919E-1,6.140000001E-2
4.196501406E1,-1.028999984E-1,5.709999800E-2,7.400000002E-3
4.199501562E1,-9.999999776E-3,-3.089999966E-2,-7.589999586E-2
4.202501719E1,2.599999867E-2,-1.287000030E-1,-1.030000020E-2
4.205498906E1,6.790000200E-2,-1.090000011E-2,1.268000007E-1
4.207501094E1,7.059999555E-2,6.769999862E-2,1.021999940E-1
4.210501250E1,2.180000022E-2,6.790000200E-2,4.250000045E-2
4.213501562E1,-1.257999986E-1,7.779999822E-2,-6.499999762E-2
4.216501719E1,-1.717000008E-1,-1.999999955E-2,4.309999943E-2
4.219501875E1,-1.396999955E-1,9.899999946E-3,9.119999409E-2
4.222498906E1,-5.529999733E-2,8.869999647E-2,-9.009999782E-2
4.224501094E1,-1.379999984E-2,2.019999921E-2,-1.775999963E-1
4.227501406E1,1.138999984E-1,-7.829999924E-2,-6.300000101E-2
4.230501562E1,6.899999827E-2,2.919999883E-2,7.899999619E-3
4.233501719E1,3.399999812E-2,4.849999771E-2,3.889999911E-2
4.236498906E1,-4.289999977E-2,1.909999922E-2,-5.599999800E-2
4.238500938E1,-5.059999973E-2,9.399999864E-3,-4.710000008E-2
4.241501250E1,-6.999999750E-4,-3.949999809E-2,-7.419999689E-2
4.244501562E1,8.460000157E-2,1.909999922E-2,-6.340000033E-2
4.247501719E1,5.999999866E-2,1.879999973E-2,-7.059999555E-2
4.250498750E1,4.639999941E-2,2.840000018E-2,-1.180000007E-1
4.252500938E1,1.319999993E-2,-1.090000011E-2,-1.138999984E-1
4.255501250E1,2.779999934E-2,-1.109999977E-2,-3.189999983E-2
4.257503906E1,3.409999982E-2,3.769999743E-2,-5.689999834E-2
4.260500469E1,5.909999833E-2,8.100000210E-3,-1.306999922E-1
4.263500625E1,8.919999748E-2,7.699999958E-3,-1.118999943E-1
4.266500938E1,6.469999999E-2,-2.199999988E-3,-8.999999845E-4
4.269501094E1,1.439999975E-2,7.400000002E-3,2.689999901E-2
4.272501250E1,-1.209999993E-2,2.709999867E-2,3.899999894E-3
4.275501563E1,-1.999999949E-4,3.700000048E-2,2.070000023E-2
4.278501719E1,6.920000166E-2,3.700000048E-2,2.789999917E-2
4.281498750E1,-8.359999955E-2,9.589999914E-2,3.119999915E-2
4.283500938E1,-1.187999994E-1,-1.169999968E-2,5.359999835E-2
4.286501250E1,-4.069999978E-2,-1.179999951E-2,2.939999849E-2
4.289501406E1,5.639999732E-2,9.579999745E-2,4.129999876E-2
4.292501562E1,3.350000083E-2,-3.139999881E-2,1.709999889E-2
4.295501719E1,-5.109999701E-2,-1.169999968E-2,-2.269999869E-2
4.298498906E1,-4.179999977E-2,3.720000014E-2,1.169999968E-2
4.300501094E1,7.549999654E-2,-9.030000120E-2,1.727999896E-1
4.303501250E1,1.200999990E-1,-6.129999831E-2,1.885000020E-1
4.306501562E1,7.159999758E-2,1.150999963E-1,9.389999509E-2
4.309501562E1,7.679999620E-2,5.590000004E-2,7.409999520E-2
4.312498750E1,4.209999740E-2,-7.180000097E-2,3.989999741E-2
4.314500938E1,-5.900000036E-2,-6.219999865E-2,-8.899999782E-3
4.317501250E1,-2.748999894E-1,8.540000021E-2,-5.659999698E-2
4.320501406E1,-3.659999967E-1,1.719999872E-2,-1.253999919E-1
4.323501562E1,-3.012999892E-1,-1.399999950E-3,-2.363999933E-1
4.326501875E1,-3.055000007E-1,2.829999849E-2,-2.660000026E-1
4.329498906E1,-4.140000045E-2,-4.999999655E-4,-1.212999970E-1
4.331501094E1,1.134999990E-1,-2.019999921E-2,-9.559999406E-2
4.334501250E1,1.539999992E-1,-4.959999770E-2,-1.806000024E-1
4.337501562E1,1.313000023E-1,2.799999900E-2,-9.730000049E-2
4.340501719E1,6.260000169E-2,7.799999788E-3,1.549999975E-2
4.343498750E1,1.321000010E-1,-3.189999983E-2,8.630000055E-2
4.345500938E1,2.696000040E-1,-3.099999856E-3,1.030999944E-1
4.348501250E1,4.388999939E-1,4.539999738E-2,1.536999941E-1
4.351501406E1,4.816999733E-1,6.350000203E-2,1.512999982E-1
4.354501563E1,4.827999771E-1,-1.589999907E-2,2.331999987E-1
4.357592031E1,2.987999916E-1,2.180000022E-2,1.576000005E-1
4.360498906E1,1.411999911E-1,-5.709999800E-2,9.449999779E-2
4.362501094E1,5.529999733E-2,-4.759999737E-2,3.790000081E-2
4.365501406E1,4.079999775E-2,-8.599999361E-3,3.209999949E-2
4.368501563E1,-3.599999845E-2,5.020000041E-2,2.829999849E-2
4.371501719E1,-6.599999964E-2,-5.709999800E-2,1.659999974E-2
4.374498750E1,-1.425999999E-1,2.199999988E-3,-4.609999806E-2
4.376500938E1,-2.070999891E-1,1.004999951E-1,-1.083000004E-1
4.379501250E1,-3.869999945E-1,5.229999870E-2,-1.467999965E-1
4.382501406E1,-4.623000026E-1,2.359999903E-2,-1.862999946E-1
4.385501719E1,-4.117999971E-1,4.490000010E-2,-1.869999915E-1
4.388501875E1,-2.493999898E-1,-1.299999934E-2,-9.939999878E-2
4.391498906E1,-4.749999940E-2,-5.130000040E-2,-1.090000011E-2
4.393501094E1,6.399999559E-2,-2.169999853E-2,1.189999934E-2
4.396501406E1,9.619999677E-2,-2.149999887E-2,3.700000001E-3
4.399501562E1,2.869999968E-2,-1.229999959E-2,3.899999894E-3
4.402501719E1,-5.279999971E-2,7.569999993E-2,3.280000016E-2
4.405498906E1,-1.953999996E-1,1.709999889E-2,2.799999900E-2
4.407501094E1,-2.387999892E-1,-2.159999870E-2,-1.409999933E-2
4.410501250E1,-1.766999960E-1,6.669999659E-2,-7.759999484E-2
4.413501406E1,-1.008000001E-1,8.299999870E-3,-3.289999813E-2
4.416501719E1,-3.729999810E-2,-2.070000023E-2,-2.359999903E-2
4.419501875E1,6.899999920E-3,-3.019999899E-2,-3.269999847E-2
4.422498906E1,6.659999490E-2,-3.989999741E-2,1.950000040E-2
4.424501094E1,1.020999998E-1,8.799999952E-3,9.719999880E-2
4.427501406E1,6.889999658E-2,-1.090000011E-2,1.476999968E-1
4.430501562E1,3.920000046E-2,7.729999721E-2,9.070000052E-2
4.433501719E1,1.850000024E-2,5.769999698E-2,-1.630000025E-2
4.436498906E1,-1.599999960E-3,2.829999849E-2,-8.320000023E-2
4.438501094E1,-9.399999864E-3,-1.059999969E-2,-6.709999591E-2
4.441501250E1,-9.899999946E-3,8.899999782E-3,-4.799999762E-3
4.444501406E1,-1.329999976E-2,3.819999844E-2,-1.599999960E-3
4.447501719E1,-1.730000041E-2,2.819999866E-2,9.599999525E-3
4.450501875E1,6.759999692E-2,-5.999999866E-2,3.900000080E-2
4.453498906E1,1.398999989E-1,8.299999870E-3,2.960000001E-2
4.455501250E1,1.370999962E-1,3.759999946E-2,4.299999774E-2
4.458501406E1,1.992999911E-1,7.899999619E-3,8.519999683E-2
4.461501563E1,1.670999974E-1,-1.219999976E-2,-1.099999994E-2
4.464501719E1,1.705999970E-1,-5.169999972E-2,1.079999935E-2
4.467498906E1,1.406999975E-1,2.609999850E-2,-3.949999809E-2
4.469501094E1,1.370999962E-1,-3.280000016E-2,-9.899999946E-3
4.472501250E1,1.229999959E-1,-5.269999802E-2,2.600000007E-3
4.475501406E1,5.689999834E-2,5.449999869E-2,8.599999361E-3
4.478501719E1,-7.490000129E-2,-4.600000102E-3,-1.899999916E-3
4.481501875E1,-1.604000032E-1,-4.499999806E-3,-2.279999852E-2
4.484498906E1,-2.073999941E-1,4.439999908E-2,-2.439999953E-2
4.486501250E1,-2.581000030E-1,1.539999992E-2,-8.039999753E-2
4.489501406E1,-1.651999950E-1,-7.199999690E-2,-5.769999698E-2
4.492501562E1,-6.449999660E-2,1.630000025E-2,-6.239999831E-2
4.495501719E1,-4.270000011E-2,1.630000025E-2,-4.549999908E-2
4.498498906E1,-1.569999941E-2,6.300000008E-3,-2.740000002E-2
4.500501094E1,-3.720000014E-2,1.589999907E-2,-3.009999916E-2
4.503501250E1,2.469999902E-2,7.429999858E-2,4.789999872E-2
4.506501406E1,3.709999844E-2,-4.499999806E-3,1.109999940E-1
4.509501719E1,5.460000038E-2,-1.429999992E-2,9.779999405E-2
4.512501875E1,1.194999963E-1,2.459999919E-2,-4.349999875E-2
4.515498906E1,5.439999700E-2,4.389999807E-2,-1.519999932E-2
4.517501250E1,3.419999778E-2,-2.459999919E-2,9.999999311E-4
4.520501406E1,3.339999914E-2,-6.390000135E-2,-1.139999926E-2
4.523501562E1,-9.999999747E-5,-2.489999868E-2,-9.119999409E-2
4.526501719E1,-2.300000004E-2,3.350000083E-2,-4.360000044E-2
4.529498906E1,-4.079999775E-2,4.339999706E-2,-8.999999613E-3
4.531501094E1,-3.709999844E-2,-5.299999844E-3,1.819999889E-2
4.534501250E1,-2.400000021E-2,4.600000102E-3,-5.350000039E-2
4.537501562E1,-6.009999663E-2,3.419999778E-2,4.399999976E-3
4.540501719E1,-4.189999774E-2,-4.999999888E-3,6.000000052E-3
4.543498750E1,-1.200000010E-2,4.699999932E-3,-5.079999939E-2
4.545500938E1,-2.960000001E-2,4.799999762E-3,-2.279999852E-2
4.548501250E1,-2.639999986E-2,-4.699999932E-3,7.999999798E-4
4.551501250E1,-4.529999942E-2,5.099999718E-3,-1.099999994E-3
4.554501563E1,-2.410000004E-2,3.460000083E-2,1.439999975E-2
4.557501875E1,-2.199999988E-2,-4.299999680E-3,1.750000007E-2
4.560498906E1,2.439999953E-2,2.060000040E-2,4.199999850E-3
4.562501094E1,5.169999972E-2,1.069999952E-2,-6.399999838E-3
4.565501250E1,6.999999750E-3,-1.889999956E-2,-7.100000046E-3
4.568501563E1,-2.969999984E-2,1.999999949E-4,1.609999873E-2
4.571501719E1,-5.759999901E-2,-1.929999888E-2,-1.499999966E-2
4.574498750E1,6.999999750E-4,-9.399999864E-3,1.799999969E-3
4.576500938E1,-2.609999850E-2,-1.909999922E-2,9.699999355E-3
4.579501250E1,-2.229999937E-2,3.989999741E-2,1.439999975E-2
4.582501406E1,-3.299999982E-3,-1.879999973E-2,-1.040000003E-2
4.585501562E1,2.989999950E-2,1.019999944E-2,-4.050000012E-2
4.588501875E1,-1.279999968E-2,-3.889999911E-2,-2.009999938E-2
4.591498906E1,6.999999750E-3,-6.830000132E-2,7.899999619E-3
4.593501094E1,6.350000203E-2,-1.939999871E-2,-2.049999870E-2
4.596501250E1,1.379999984E-2,-1.950000040E-2,-7.609999925E-2
4.599501562E1,-1.579999924E-2,2.939999849E-2,6.019999832E-2
4.602501719E1,-2.429999970E-2,6.879999489E-2,1.246999949E-1
4.605498750E1,-3.159999847E-2,1.999999955E-2,1.521999985E-1
4.607500938E1,-3.959999979E-2,3.989999741E-2,2.215999961E-1
4.610501250E1,-1.237999946E-1,2.060000040E-2,2.604999840E-1
4.613501406E1,-1.199999973E-1,-7.499999832E-3,1.826999933E-1
4.616501562E1,8.729999512E-2,-4.629999772E-2,5.790000036E-2
4.619501719E1,2.504000068E-1,-1.750000007E-2,-2.639999986E-2
4.622498906E1,1.929000020E-1,1.599999960E-3,-1.879999973E-2
4.624501094E1,1.072999984E-1,-3.790000081E-2,-2.659999952E-2
4.627501250E1,2.339999937E-2,-8.899999782E-3,-9.950000048E-2
4.630501562E1,-1.799999923E-2,4.999999655E-4,-1.519999951E-1
4.633501719E1,-2.459999919E-2,-2.879999951E-2,-1.039000005E-1
4.636498906E1,-1.019999944E-2,-8.999999613E-3,-8.179999888E-2
4.638500938E1,-4.649999738E-2,2.049999870E-2,-7.959999889E-2
4.641501250E1,-4.199999943E-2,4.019999877E-2,-2.620000020E-2
4.644501406E1,-7.999999449E-3,1.300000004E-3,7.059999555E-2
4.647501563E1,-3.499999875E-3,-3.749999776E-2,2.789999917E-2
4.650501875E1,-6.849999726E-2,-2.749999985E-2,5.439999700E-2
4.653498906E1,-5.419999734E-2,2.169999853E-2,5.329999700E-2
4.655501094E1,-3.370000049E-2,-7.499999832E-3,8.199999481E-2
4.658501250E1,4.100000020E-3,-1.740000024E-2,1.006999984E-1
4.661501563E1,-5.179999769E-2,6.129999831E-2,1.006999984E-1
4.664501719E1,-8.899999410E-2,1.249999925E-2,6.549999863E-2
4.667498750E1,-3.659999743E-2,-6.549999863E-2,9.599999525E-3
4.669501094E1,-6.899999920E-3,1.289999951E-2,7.499999832E-3
4.672501250E1,-5.319999903E-2,2.290000021E-2,3.260000050E-2
4.675501406E1,-3.979999945E-2,-5.499999970E-2,3.299999982E-2
4.678501719E1,-3.099999856E-3,-4.539999738E-2,-6.340000033E-2
4.681501875E1,-5.059999973E-2,-6.199999712E-3,-7.559999824E-2
4.684498906E1,-1.669999957E-2,-1.589999907E-2,-1.310000010E-2
4.686501250E1,3.359999880E-2,3.309999779E-2,-1.090000011E-2
4.689501406E1,4.479999840E-2,6.269999593E-2,-3.599999938E-3
4.692501562E1,-8.499999531E-3,4.199999850E-3,-2.829999849E-2
4.695501719E1,-1.659999974E-2,-2.499999851E-2,-9.999999776E-3
4.698498750E1,-2.829999849E-2,3.359999880E-2,4.169999808E-2
4.700501094E1,-3.790000081E-2,-2.510000020E-2,9.919999540E-2
4.703501250E1,0.000000000E0,-1.519999932E-2,8.169999719E-2
4.706501406E1,-3.700000001E-3,-5.599999800E-3,2.199999988E-3
4.709501562E1,-4.470000044E-2,3.999999724E-3,-6.520000100E-2
4.712501875E1,-4.120000079E-2,7.229999453E-2,-2.410000004E-2
4.715498906E1,-8.150000125E-2,-2.559999935E-2,3.889999911E-2
4.717501094E1,-1.379999965E-1,-6.459999830E-2,-4.490000010E-2
4.720501406E1,-8.789999783E-2,2.379999869E-2,-1.132999957E-1
4.723501562E1,-4.539999738E-2,5.350000039E-2,-9.749999642E-2
4.726501719E1,2.799999900E-3,-4.429999739E-2,-9.569999576E-2
4.729498750E1,-2.070000023E-2,3.390000015E-2,-7.649999857E-2
4.731501094E1,-2.319999970E-2,4.299999680E-3,-2.869999968E-2
4.734501250E1,6.740000099E-2,-2.539999969E-2,2.979999967E-2
4.737501406E1,1.366000026E-1,-4.529999942E-2,3.159999847E-2
4.740501719E1,1.806000024E-1,-1.589999907E-2,4.499999806E-3
4.743501875E1,1.410000026E-1,-3.590000048E-2,9.510000050E-2
4.746498906E1,1.233999953E-1,2.799999900E-3,1.237000003E-1
4.748501094E1,1.079999954E-1,2.600000007E-3,8.329999447E-2
4.751501406E1,5.130000040E-2,-2.709999867E-2,2.899999963E-3
4.754501563E1,-6.009999663E-2,-1.750000007E-2,-2.400000021E-2
4.757501719E1,-1.335999966E-1,4.149999842E-2,-4.329999909E-2
4.760498906E1,-1.438999921E-1,1.269999985E-2,-1.084999964E-1
4.762501094E1,-5.150000006E-2,-4.580000043E-2,-5.939999968E-2
4.765501250E1,8.899999782E-3,-4.569999874E-2,-2.080000006E-2
4.768501406E1,2.080000006E-2,2.309999987E-2,-2.649999969E-2
4.771501719E1,4.759999737E-2,2.290000021E-2,-5.279999971E-2
4.774501875E1,4.690000042E-2,-1.630000025E-2,-3.199999919E-3
4.777498906E1,4.499999806E-3,2.259999886E-2,-1.200000010E-2
4.779501094E1,-1.659999974E-2,3.229999915E-2,-2.029999904E-2
4.782501406E1,2.070000023E-2,2.799999900E-3,4.690000042E-2
4.785501562E1,1.049999986E-2,-6.799999624E-3,3.000000026E-3
4.788501719E1,4.209999740E-2,-6.599999964E-3,-9.499999695E-3
4.791498906E1,0.000000000E0,2.259999886E-2,3.130000085E-2
4.793501094E1,5.699999630E-3,2.699999837E-3,5.319999903E-2
4.796501250E1,-1.719999872E-2,-1.699999906E-2,4.209999740E-2
4.799501406E1,3.039999865E-2,3.199999779E-2,4.699999839E-2
4.802501719E1,3.769999743E-2,2.600000007E-3,8.329999447E-2
4.805501875E1,6.449999660E-2,-6.579999626E-2,9.239999950E-2
4.808498906E1,8.190000057E-2,-6.899999920E-3,5.719999969E-2
4.810501250E1,6.960000098E-2,2.799999900E-3,8.479999751E-2
4.813501406E1,-3.199999919E-3,-1.689999923E-2,6.319999695E-2
4.816501562E1,1.249999925E-2,-2.689999901E-2,2.449999936E-2
4.819501719E1,-8.999999613E-3,2.199999988E-3,-4.120000079E-2
4.822498906E1,-2.999999933E-2,6.089999899E-2,-4.739999771E-2
4.824501094E1,9.399999864E-3,1.179999951E-2,-5.599999800E-2
4.827501250E1,4.699999839E-2,-6.659999490E-2,-6.509999931E-2
4.830501406E1,-1.379999984E-2,-7.999999449E-3,-5.260000005E-2
4.833501719E1,-2.309999987E-2,1.139999926E-2,-5.649999902E-2
4.836498750E1,1.159999985E-2,-3.799999878E-2,-8.799999952E-3
4.838500938E1,-1.159999985E-2,6.999999750E-4,7.599999662E-3
4.841501250E1,-4.050000012E-2,2.029999904E-2,9.699999355E-3
4.844501406E1,-1.219999976E-2,-2.869999968E-2,2.199999988E-2
4.847501563E1,5.469999835E-2,-4.849999771E-2,-6.699999794E-3
4.850501719E1,2.539999969E-2,1.040000003E-2,-9.099999443E-3
4.853498906E1,-3.289999813E-2,2.999999933E-2,-7.699999958E-3
4.855501094E1,-5.139999837E-2,-4.839999974E-2,2.399999881E-3
4.858501250E1,-4.030000046E-2,-4.839999974E-2,-5.439999700E-2
4.861501563E1,-6.859999895E-2,4.949999973E-2,-1.999999949E-4
4.864501719E1,-6.419999897E-2,6.999999750E-4,1.799999923E-2
4.867498750E1,-3.219999745E-2,-6.759999692E-2,-4.219999909E-2
4.869500938E1,-1.299999934E-2,-2.850000001E-2,-4.169999808E-2
4.872501094E1,4.199999850E-3,3.989999741E-2,1.049999986E-2
4.875501250E1,-4.600000102E-3,-5.799999833E-2,-1.500000013E-3
4.878501562E1,-2.180000022E-2,8.999999845E-4,-3.240000084E-2
4.881501875E1,-1.189999934E-2,2.049999870E-2,-4.859999940E-2
4.884498906E1,-8.810000122E-2,2.049999870E-2,1.500000013E-3
4.886501250E1,-6.570000201E-2,-1.850000024E-2,3.179999813E-2
4.889501250E1,-5.299999844E-3,1.099999994E-3,1.119999960E-2
4.892501562E1,2.339999937E-2,1.090000011E-2,-3.669999912E-2
4.895501719E1,2.129999921E-2,-2.840000018E-2,1.249999925E-2
4.898498750E1,6.889999658E-2,-2.840000018E-2,5.979999900E-2
4.900500938E1,7.569999993E-2,-1.869999990E-2,7.710000128E-2
4.903501250E1,5.150000006E-2,-8.999999613E-3,1.469999924E-2
4.906501406E1,6.839999557E-2,-1.879999973E-2,6.149999797E-2
4.909501562E1,3.480000049E-2,5.999999703E-4,3.819999844E-2
4.912501875E1,4.900000058E-3,-2.869999968E-2,8.439999819E-2
4.915498906E1,-5.150000006E-2,2.049999870E-2,3.139999881E-2
4.917501094E1,-6.809999794E-2,1.099999994E-3,3.940000013E-2
4.920501406E1,1.069999952E-2,1.099999994E-3,8.299999870E-3
4.923501562E1,-7.199999876E-3,9.999999776E-3,4.479999840E-2
4.926501719E1,-1.699999906E-2,-4.859999940E-2,4.160000011E-2
4.929498906E1,1.249999925E-2,-9.759999812E-2,9.699999355E-3
4.931501094E1,3.079999983E-2,-9.399999864E-3,-1.879999973E-2
4.934501250E1,-5.629999936E-2,2.999999851E-4,-2.689999901E-2
4.937501406E1,-8.799999952E-2,-8.760000020E-2,-2.359999903E-2
4.940501563E1,-5.509999767E-2,-5.810000002E-2,-6.069999933E-2
4.943501875E1,-1.310000010E-2,-4.829999804E-2,-6.589999795E-2
4.946498906E1,-6.069999933E-2,-9.099999443E-3,-1.009999961E-1
4.948501094E1,-6.700000167E-2,1.049999986E-2,-6.999999750E-4
4.951501406E1,1.429999992E-2,-8.720000088E-2,5.419999734E-2
4.954501563E1,3.209999949E-2,9.999999311E-4,-2.689999901E-2
4.957501719E1,-6.699999794E-3,-5.769999698E-2,4.079999775E-2
4.960498906E1,6.099999696E-2,-4.789999872E-2,7.649999857E-2
4.962501094E1,8.749999851E-2,-7.729999721E-2,5.389999971E-2
4.965501250E1,2.559999935E-2,-2.840000018E-2,3.209999949E-2
4.968501406E1,4.339999706E-2,-6.759999692E-2,8.649999648E-2
4.971501719E1,8.460000157E-2,2.600000007E-3,3.209999949E-2
4.974501875E1,-1.409999933E-2,1.239999942E-2,2.139999904E-2
4.977498906E1,2.479999885E-2,-6.579999626E-2,5.700000003E-2
4.979501094E1,9.889999777E-2,-7.580000162E-2,2.630000003E-2
4.982501406E1,4.719999805E-2,-7.299999706E-3,-1.899999916E-3
4.985501562E1,-4.789999872E-2,-2.679999918E-2,-1.109999977E-2
4.988501719E1,1.159999985E-2,-3.669999912E-2,-5.790000036E-2
4.991498750E1,6.549999863E-2,-6.650000066E-2,-6.359999627E-2
4.993501094E1,6.269999593E-2,-3.720000014E-2,-5.139999837E-2
4.996501250E1,1.359999925E-2,1.799999969E-3,-5.839999765E-2
4.999501562E1,-6.009999663E-2,1.699999906E-3,-1.641999930E-1
5.002501562E1,-6.639999896E-2,1.599999960E-3,-1.671999991E-1
5.005501875E1,-5.169999972E-2,-2.789999917E-2,-1.621999890E-1
5.008498906E1,-3.909999877E-2,1.300000004E-3,-1.908999979E-1
5.010501094E1,8.999999845E-4,1.090000011E-2,-2.203999907E-1
5.013501406E1,4.669999704E-2,-6.799999624E-2,-1.745999902E-1
5.016501562E1,2.469999902E-2,-9.499999695E-3,-2.052999884E-1
5.019501719E1,-1.279999968E-2,3.900000080E-2,-2.122999877E-1
5.022498906E1,-4.999999655E-4,-9.899999946E-3,-1.640999913E-1
5.024501094E1,-2.019999921E-2,-4.939999804E-2,-1.648999900E-1
5.027501250E1,-9.109999985E-2,9.399999864E-3,-1.571999937E-1
5.030501406E1,-1.064999998E-1,6.830000132E-2,-1.554999948E-1
5.033501719E1,-1.200999990E-1,2.919999883E-2,-1.508999914E-1
5.036501875E1,-1.457999945E-1,-4.899999872E-2,-1.322999895E-1
5.039498906E1,-1.271999925E-1,2.979999967E-2,-1.418000013E-1
5.041501094E1,-1.204999983E-1,-2.850000001E-2,-1.167999953E-1
5.044501406E1,-5.669999868E-2,-6.740000099E-2,-1.589999907E-2
5.047501563E1,4.179999977E-2,-4.759999737E-2,2.699999884E-2
5.050501719E1,3.339999914E-2,-2.789999917E-2,1.439999975E-2
5.053498906E1,5.969999731E-2,-1.819999889E-2,3.799999878E-2
5.055501094E1,5.839999765E-2,-8.399999700E-3,3.359999880E-2
5.058501250E1,-1.249999925E-2,-3.779999912E-2,6.969999522E-2
5.061501406E1,-1.829999872E-2,-3.739999980E-2,6.870000064E-2
5.064501719E1,1.099999994E-3,1.150000002E-2,-6.719999760E-2
5.067501875E1,-3.539999947E-2,-4.719999805E-2,-2.419999987E-2
5.070498906E1,-4.609999806E-2,-5.709999800E-2,9.999999776E-3
5.072501250E1,-1.315999925E-1,-7.999999449E-3,8.999999613E-3
5.075501406E1,-5.659999698E-2,3.150000051E-2,9.200000204E-3
5.078501562E1,2.529999986E-2,-1.719999872E-2,-9.300000034E-3
5.081501719E1,5.449999869E-2,-4.669999704E-2,9.800000116E-3
5.084498906E1,5.139999837E-2,-2.730000019E-2,3.249999881E-2
5.086501094E1,3.929999843E-2,-5.689999834E-2,-3.199999919E-3
5.089501250E1,-3.999999724E-3,-2.779999934E-2,1.899999916E-3
5.092501562E1,-1.185999960E-1,-7.999999449E-3,1.099999994E-2
5.095501719E1,-3.460000083E-2,-1.750000007E-2,-2.499999851E-2
5.098501875E1,-1.370000001E-2,4.120000079E-2,-6.849999726E-2
5.101498906E1,-2.190000005E-2,-2.740000002E-2,-8.269999921E-2
5.103501250E1,-1.260000002E-2,-3.720000014E-2,-5.240000039E-2
5.106501406E1,4.999999888E-3,2.139999904E-2,-3.099999949E-2
5.109501562E1,3.329999745E-2,-4.719999805E-2,-3.869999945E-2
5.112501875E1,3.869999945E-2,1.999999862E-3,-6.699999794E-3
5.115498906E1,-1.040000003E-2,5.109999701E-2,-1.489999983E-2
5.117501094E1,-5.799999833E-2,7.079999894E-2,-6.599999964E-3
5.120501250E1,-2.909999900E-2,7.079999894E-2,1.169999968E-2
5.123501562E1,-8.899999782E-3,4.140000045E-2,-2.779999934E-2
5.126501719E1,7.499999832E-3,5.099999905E-2,-7.319999486E-2
5.129498750E1,-1.099999994E-2,3.139999881E-2,-4.259999841E-2
5.131500938E1,-1.069999952E-2,1.899999916E-3,-5.049999803E-2
5.134501094E1,-1.939999871E-2,2.159999870E-2,-6.769999862E-2
5.137501406E1,-2.819999866E-2,6.079999730E-2,-3.549999744E-2
5.140501563E1,-4.729999974E-2,1.179999951E-2,-4.799999762E-3
5.143501875E1,-6.899999920E-3,4.129999876E-2,-3.399999812E-3
5.146498906E1,1.239999942E-2,6.089999899E-2,2.569999918E-2
5.148501094E1,-6.899999920E-3,2.169999853E-2,4.429999739E-2
5.151501250E1,-6.000000052E-3,2.099999925E-3,4.199999850E-3
5.154501563E1,-4.380000010E-2,4.140000045E-2,4.199999943E-2
5.157501719E1,-5.099999905E-2,6.129999831E-2,6.570000201E-2
5.160498750E1,-1.159999985E-2,-1.699999906E-2,1.439999975E-2
5.162500938E1,-1.150000002E-2,2.209999971E-2,-6.099999882E-3
5.165501094E1,-2.119999938E-2,1.229999959E-2,5.109999701E-2
5.168501406E1,-1.500000013E-3,3.199999779E-2,4.820000008E-2
5.171501563E1,2.649999969E-2,6.140000001E-2,4.429999739E-2
5.174501875E1,-3.199999919E-3,3.199999779E-2,2.369999886E-2
5.177498906E1,1.449999958E-2,2.499999944E-3,2.249999903E-2
5.179501094E1,6.089999899E-2,2.300000051E-3,2.799999900E-3
5.182501250E1,1.079999935E-2,5.130000040E-2,3.049999848E-2
5.185501562E1,8.499999531E-3,4.140000045E-2,2.999999851E-4
5.188501719E1,-1.960000023E-2,1.209999993E-2,-8.999999845E-4
5.191498750E1,-8.299999870E-3,3.179999813E-2,-1.599999960E-3
5.193500938E1,2.009999938E-2,2.190000005E-2,-2.960000001E-2
5.196501250E1,1.879999973E-2,5.130000040E-2,1.979999989E-2
5.199501406E1,-1.699999906E-3,3.159999847E-2,-1.030000020E-2
5.202501562E1,8.899999782E-3,3.159999847E-2,-3.839999810E-2
5.205501875E1,-4.779999703E-2,4.149999842E-2,-2.449999936E-2
5.208498906E1,-2.400000021E-2,-7.999999798E-4,-3.469999880E-2
5.210501094E1,-4.250000045E-2,-1.059999969E-2,-5.319999903E-2
5.213501406E1,-2.979999967E-2,-2.029999904E-2,-4.019999877E-2
5.216501562E1,1.030000020E-2,-2.019999921E-2,-1.879999973E-2
5.219501719E1,4.999999655E-4,2.869999968E-2,1.119999960E-2
5.222498906E1,-7.400000002E-3,-7.899999619E-2,-2.759999968E-2
5.224500938E1,2.300000051E-3,-3.979999945E-2,-5.579999834E-2
5.227501250E1,1.099999994E-2,1.879999973E-2,-3.309999779E-2
5.230501406E1,1.300000004E-3,-5.949999765E-2,-1.499999966E-2
5.233501563E1,1.999999955E-2,1.879999973E-2,1.299999934E-2
5.236501875E1,-9.399999864E-3,2.859999985E-2,-1.640000008E-2
5.239498906E1,-5.529999733E-2,-6.920000166E-2,-2.439999953E-2
5.241501094E1,-2.479999885E-2,-1.030000020E-2,-1.389999967E-2
5.244501406E1,-4.339999706E-2,3.869999945E-2,1.559999958E-2
5.247501563E1,-4.010000080E-2,-9.999999776E-3,-4.799999762E-3
5.250501719E1,-4.859999940E-2,3.889999911E-2,-4.209999740E-2
5.253498750E1,-6.359999627E-2,-4.899999872E-2,-1.979999989E-2
5.255501094E1,-3.240000084E-2,-7.829999924E-2,-1.999999949E-4
5.257503750E1,-5.920000002E-2,1.999999949E-4,-3.769999743E-2
5.260500312E1,-6.700000167E-2,5.909999833E-2,-7.499999832E-3
5.263500469E1,-3.390000015E-2,-4.849999771E-2,-6.899999920E-3
5.266500781E1,-3.269999847E-2,-2.879999951E-2,-2.539999969E-2
5.269500938E1,-2.999999933E-2,2.029999904E-2,-5.299999844E-3
5.272501094E1,-2.909999900E-2,-3.839999810E-2,-2.389999852E-2
5.275501406E1,-2.699999884E-2,2.039999887E-2,1.630000025E-2
5.278501562E1,-4.499999806E-2,-2.840000018E-2,4.319999740E-2
5.281501719E1,1.379999984E-2,9.999999311E-4,3.949999809E-2
5.284498906E1,5.979999900E-2,-7.750000060E-2,2.019999921E-2
5.286501094E1,5.649999902E-2,-4.829999804E-2,2.939999849E-2
5.289501250E1,3.219999745E-2,-9.300000034E-3,7.379999757E-2
5.292501406E1,2.989999950E-2,-9.300000034E-3,4.019999877E-2
5.295501719E1,3.819999844E-2,-4.859999940E-2,2.649999969E-2
5.298501875E1,5.399999768E-2,1.979999989E-2,2.489999868E-2
5.301498906E1,4.930000007E-2,-1.960000023E-2,3.209999949E-2
5.303501094E1,3.790000081E-2,-3.929999843E-2,2.129999921E-2
5.306501406E1,2.649999969E-2,-4.919999838E-2,2.070000023E-2
5.309501562E1,1.609999873E-2,-9.999999747E-5,4.710000008E-2
5.312501719E1,3.409999982E-2,1.939999871E-2,7.279999554E-2
5.315498750E1,-4.199999850E-3,1.950000040E-2,1.109999977E-2
5.317501094E1,5.299999844E-3,-1.970000006E-2,1.059999969E-2
5.320501250E1,4.799999762E-3,-5.889999866E-2,2.080000006E-2
5.323501406E1,1.359999925E-2,-6.879999489E-2,-8.700000122E-3
5.326501719E1,1.310000010E-2,-1.979999989E-2,2.060000040E-2
5.329501875E1,-5.599999800E-3,4.889999703E-2,2.749999985E-2
5.332498906E1,-2.620000020E-2,9.599999525E-3,8.429999650E-2
5.334501094E1,-2.549999952E-2,9.699999355E-3,6.229999661E-2
5.337501406E1,-7.919999957E-2,1.999999949E-4,1.199999941E-3
5.340501563E1,-2.799999900E-2,2.999999851E-4,5.999999866E-2
5.343501719E1,-3.429999948E-2,3.979999945E-2,3.619999811E-2
5.346498906E1,-4.259999841E-2,-2.859999985E-2,-3.139999881E-2
5.348501094E1,-2.109999955E-2,-3.839999810E-2,-8.720000088E-2
5.351501250E1,-3.999999899E-4,-1.879999973E-2,-5.329999700E-2
5.354501406E1,-1.059999969E-2,0.000000000E0,-4.219999909E-2
5.357592031E1,8.200000040E-3,-9.800000116E-3,-2.029999904E-2
5.360501875E1,-2.109999955E-2,0.000000000E0,-8.700000122E-3
5.363498906E1,3.529999778E-2,-1.999999949E-4,-4.509999976E-2
5.365501250E1,7.129999995E-2,-3.999999899E-4,-2.439999953E-2
5.368501406E1,2.889999934E-2,9.099999443E-3,-5.399999674E-3
5.371501563E1,1.699999906E-2,3.839999810E-2,3.899999894E-3
5.374501719E1,-4.979999736E-2,-5.999999703E-4,-5.370000005E-2
5.377498906E1,-8.200000040E-3,-2.989999950E-2,-3.159999847E-2
5.379501094E1,1.079999935E-2,-5.999999703E-4,-4.899999872E-2
5.382501250E1,-1.869999990E-2,2.869999968E-2,-8.499999531E-3
5.385501562E1,-1.709999889E-2,-1.030000020E-2,-7.400000002E-3
5.388501719E1,-2.569999918E-2,-4.999999655E-4,-2.579999901E-2
5.391501875E1,4.499999806E-3,9.300000034E-3,2.269999869E-2
5.394498906E1,1.319999993E-2,-1.030000020E-2,1.189999934E-2
5.396501250E1,2.129999921E-2,-4.959999770E-2,3.049999848E-2
5.399501406E1,1.960000023E-2,-1.049999986E-2,-1.689999923E-2
5.402501562E1,-4.690000042E-2,9.200000204E-3,4.129999876E-2
5.405501719E1,-6.879999489E-2,5.200000014E-3,3.720000014E-2
5.408498906E1,-5.999999703E-4,-2.419999987E-2,1.599999890E-2
5.410501094E1,-4.999999655E-4,-5.359999835E-2,2.589999884E-2
5.413501250E1,-7.999999798E-4,1.499999966E-2,5.179999769E-2
5.416501562E1,-1.869999990E-2,-4.399999976E-3,5.889999866E-2
5.419501719E1,1.500000013E-3,5.399999674E-3,2.689999901E-2
5.422498750E1,2.119999938E-2,-5.329999700E-2,3.590000048E-2
5.424500938E1,2.399999881E-3,-4.339999706E-2,7.259999961E-2
5.427501250E1,-1.569999941E-2,4.490000010E-2,2.850000001E-2
5.430501406E1,-2.410000004E-2,2.539999969E-2,2.689999901E-2
5.433501563E1,-2.899999963E-3,-2.339999937E-2,3.350000083E-2
5.436501875E1,-3.219999745E-2,1.579999924E-2,4.129999876E-2
5.439498906E1,7.499999832E-3,-8.209999651E-2,8.999999845E-4
5.441501094E1,2.599999867E-2,-4.289999977E-2,2.899999917E-2
5.444501250E1,-1.379999984E-2,-2.329999954E-2,2.769999951E-2
5.447501563E1,-3.499999875E-3,-3.599999938E-3,6.239999831E-2
5.450501719E1,2.329999954E-2,1.589999907E-2,6.899999827E-2
5.453498750E1,1.999999955E-2,2.559999935E-2,8.150000125E-2
5.455500938E1,3.769999743E-2,-9.599999525E-3,6.859999895E-2
5.458501250E1,5.519999936E-2,-9.699999355E-3,8.799999952E-3
5.461501406E1,6.069999933E-2,-9.999999747E-5,5.449999869E-2
5.464501719E1,-1.860000007E-2,-3.929999843E-2,3.249999881E-2
5.467501719E1,-1.679999940E-2,-2.929999866E-2,9.599999525E-3
5.470498906E1,2.169999853E-2,9.699999355E-3,1.049999986E-2
5.472501094E1,7.999999798E-4,-3.929999843E-2,-9.099999443E-3
5.475501250E1,2.929999866E-2,-1.079999954E-1,-5.579999834E-2
5.478501563E1,-8.999999613E-3,6.839999557E-2,2.379999869E-2
5.481501719E1,3.849999979E-2,-1.979999989E-2,-1.559999958E-2
5.484498750E1,3.739999980E-2,-1.989999972E-2,4.600000102E-3
5.486501094E1,3.570000082E-2,3.879999742E-2,7.099999487E-2
5.489501250E1,-2.209999971E-2,4.879999906E-2,2.719999850E-2
5.492501406E1,-6.819999963E-2,5.879999697E-2,1.015999988E-1
5.495501562E1,1.699999906E-3,6.899999827E-2,1.199999973E-1
5.498501875E1,3.009999916E-2,-2.889999934E-2,6.570000201E-2
5.501498906E1,-2.789999917E-2,-6.799999624E-2,2.239999920E-2
5.503501094E1,-3.590000048E-2,-5.819999799E-2,-5.359999835E-2
5.506501250E1,3.289999813E-2,3.969999775E-2,-6.780000031E-2
5.509501562E1,4.659999907E-2,2.950000018E-2,2.279999852E-2
5.512501719E1,-7.979999483E-2,-3.889999911E-2,2.009999938E-2
5.515498750E1,-3.570000082E-2,-3.869999945E-2,-1.829999872E-2
5.517500938E1,-2.469999902E-2,3.999999899E-4,-5.499999970E-2
5.520501250E1,2.359999903E-2,1.019999944E-2,-3.339999914E-2
5.523501406E1,4.889999703E-2,-1.939999871E-2,1.469999924E-2
5.526501719E1,8.399999700E-3,-2.919999883E-2,2.339999937E-2
5.529501875E1,-9.999999776E-3,-9.599999525E-3,-5.229999870E-2
5.532498906E1,-3.949999809E-2,3.929999843E-2,-2.009999938E-2
5.534501094E1,-6.679999828E-2,-9.499999695E-3,-1.030000020E-2
5.537501406E1,-7.109999657E-2,-9.200000204E-3,-1.699999906E-3
5.540501563E1,-1.099999994E-3,1.030000020E-2,-7.789999992E-2
5.543501719E1,-2.869999968E-2,-9.300000034E-3,-6.019999832E-2
5.546498750E1,9.999999311E-4,1.030000020E-2,1.779999956E-2
5.548501094E1,-3.599999845E-2,3.009999916E-2,2.469999902E-2
5.551501250E1,-2.439999953E-2,-1.879999973E-2,-4.219999909E-2
5.554501406E1,1.519999932E-2,-4.829999804E-2,-6.849999726E-2
5.557501719E1,1.420000009E-2,1.300000004E-3,-2.639999986E-2
5.560501875E1,-6.000000052E-3,3.070000000E-2,4.079999775E-2
5.563498906E1,5.859999731E-2,-6.740000099E-2,3.689999878E-2
5.565501094E1,5.609999970E-2,-3.819999844E-2,-5.839999765E-2
5.568501406E1,6.899999920E-3,-2.850000001E-2,-5.499999970E-2
5.571501563E1,-3.049999848E-2,-2.840000018E-2,3.280000016E-2
5.574501719E1,-2.909999900E-2,1.079999935E-2,1.310000010E-2
5.577498750E1,-8.209999651E-2,-1.809999906E-2,-2.630000003E-2
5.579501094E1,-9.719999880E-2,-1.799999923E-2,-8.139999956E-2
5.582501250E1,-7.459999621E-2,-2.769999951E-2,-7.779999822E-2
