"Time (s)","Acceleration x (m/s^2)","Acceleration y (m/s^2)","Acceleration z (m/s^2)"
0.000000000E0,4.884171486E-1,1.030464458E1,2.078166962E0
2.001875000E-2,-1.340752989E-1,1.173158836E1,1.608903527E0
4.498958300E-2,-3.916913986E0,1.309149456E1,2.920926094E0
6.519791600E-2,3.811569214E0,1.187524033E1,9.002198577E-1
9.003541600E-2,1.963245392E0,1.154962921E1,-5.353435040E0
1.150052080E-1,-7.948749661E-1,4.769249916E0,4.999093056E0
1.351270830E-1,-2.806004286E0,5.305551052E0,3.600879431E0
1.601994790E-1,-4.299986362E0,8.619126320E0,2.279279947E0
1.853338540E-1,-1.455674648E0,1.177947235E1,1.838746905E0
2.101671870E-1,-3.543418407E0,1.314895535E1,-1.254561663E0
2.302541660E-1,-2.173935175E0,9.730035782E0,3.007117271E0
2.552203120E-1,-8.810662031E-1,5.851428986E0,3.533841610E0
2.801843740E-1,-3.236960649E0,6.607996464E0,3.744531393E0
3.002083330E-1,2.930502892E0,1.952710915E1,3.677493811E0
3.251984370E-1,-3.064578176E-1,1.105163479E1,1.072602391E0
3.452661450E-1,3.696647406E0,1.149216843E1,1.398213744E0
3.652770830E-1,-5.171475410E-1,9.902418137E0,1.369483352E0
3.903557290E-1,-4.338293552E0,8.820239067E0,1.177947283E0
4.152682290E-1,-6.320692301E-1,9.844957352E0,2.489969730E0
4.445114580E-1,-2.528276920E0,1.153047562E1,9.576806426E-2
4.652291660E-1,-1.359906554E0,7.153874874E0,2.873041928E-1
4.903713540E-1,1.541865945E0,5.918466568E0,1.541865945E0
5.103999990E-1,-8.427590132E-1,6.876147270E0,2.240972757E0
5.355552080E-1,-1.637633920E0,1.094629002E1,2.786850691E0
5.603645830E-1,-1.302445769E0,1.243069553E1,2.470816135E0
5.803968740E-1,-7.278373241E-1,9.203310966E0,2.576161146E0
6.051651040E-1,5.746084079E-2,6.837840080E0,3.208230257E0
6.251880200E-1,3.926490843E-1,8.475474358E0,1.829170108E0
6.504130200E-1,-1.905784607E0,9.337387085E0,8.044517636E-1
6.704322910E-1,-3.801992416E0,1.448013210E1,-6.607996821E-1
6.951890620E-1,-4.721365929E0,1.441309452E1,0.000000000E0
7.152802080E-1,-3.208230257E0,9.682151794E0,2.202665567E0
7.355447910E-1,-2.231395960E0,6.914454460E0,2.624045134E0
7.603713540E-1,2.968810081E0,1.455674648E0,2.173935175E0
7.852473950E-1,-5.171475410E-1,9.107542992E0,-1.436520964E-1
8.103614580E-1,-1.168370485E0,1.126232433E1,-6.224924326E-1
8.354770830E-1,-1.063025594E0,8.140285492E0,-1.187524080E0
8.603859370E-1,-1.675941229E0,1.011310768E1,2.777273953E-1
8.852239580E-1,-1.675941229E0,1.026633644E1,2.614468336E0
9.052588540E-1,-2.834734917E0,1.105163479E1,2.566584110E0
9.304010410E-1,-2.451662540E0,1.045787334E1,3.055001259E0
9.562052080E-1,-6.320692301E-1,1.662533569E1,1.273715258E0
9.803661450E-1,-6.703764945E-2,1.499727917E1,6.224924326E-1
1.000401041E0,2.585737705E-1,1.320641613E1,1.264138460E0
1.025261979E0,-5.171475410E-1,9.528923035E0,-1.082179189E0
1.050366666E0,8.619126081E-1,2.087743998E0,3.256114423E-1
1.070397395E0,-1.216254473E0,1.991975784E0,3.074155092E0
1.095210416E0,-1.838746905E0,9.490615845E0,5.592854977E0
1.115259374E0,-3.610456228E0,1.099417400E1,3.773261786E0
1.135858854E0,-2.691082716E0,1.204762268E1,-3.447650373E-1
1.160378645E0,-1.474828243E0,1.415452003E1,-1.331176162E0
1.185225520E0,7.948749661E-1,1.117613316E1,9.768342972E-1
1.210401562E0,-4.309563041E-1,1.108994198E1,2.710236311E0
1.235516666E0,-1.340752959E0,1.223915863E1,3.169923067E0
1.260359895E0,-2.049436569E0,1.343626022E1,3.524264812E0
1.280374479E0,-1.321599364E0,1.289995861E1,2.671929121E0
1.300397916E0,-1.790862918E0,9.768342972E0,2.662352324E0
1.325225520E0,7.661445141E-1,8.542511940E0,2.106897593E0
1.345318228E0,-5.171475410E-1,7.527369976E0,2.585737944E0
1.370357291E0,-1.666364431E0,4.903325081E0,3.150769472E0
1.390381249E0,-1.838746905E0,5.544970989E0,2.489969730E0
1.415249478E0,-1.666364431E0,8.197746277E0,2.604891539E0
1.446506249E0,-1.695094824E0,8.944737434E0,3.332728863E0
1.470392708E0,-1.197100878E0,8.188169479E0,4.156333923E0
1.490414583E0,-2.432508945E0,7.747636795E0,4.338293552E0
1.515272395E0,-2.614468336E0,8.647856712E0,4.539406300E0
1.535515103E0,-1.752555609E0,9.088389397E0,5.851428986E0
1.560456249E0,-4.309563041E-1,8.456320763E0,2.662352324E0
1.585189062E0,-3.514688015E0,9.165003777E0,5.544970989E0
1.605233333E0,-1.082179189E0,6.426037312E0,7.345410824E0
1.625279166E0,-7.852981687E-1,7.067683220E0,6.569689274E0
1.650349999E0,-6.607996821E-1,8.552088737E0,5.851428986E0
1.670404687E0,-2.154781580E0,1.210508347E1,5.372588634E0
1.690613541E0,-2.758120298E0,1.255519390E1,4.539406300E0
1.715276562E0,-2.987963676E0,1.104205799E1,4.299986362E0
1.735520833E0,-1.570596337E0,6.435614109E0,7.029376030E0
1.760358333E0,1.082179189E0,4.826710701E0,7.096413612E0
1.780371874E0,-9.097966552E-1,8.034940720E0,3.955221176E0
1.805219270E0,-2.834734917E0,9.394847870E0,-1.340752989E-1
1.830365624E0,-4.797980309E0,9.394847870E0,-1.034295082E0
1.855212499E0,-4.491522312E0,9.758766174E0,5.477933407E0
1.880368228E0,-2.997540474E0,9.366117477E0,5.564124584E0
1.905202083E0,-1.417367458E0,8.379706383E0,3.620033026E0
1.930367708E0,7.852981687E-1,6.426037312E0,2.576161146E0
1.950419270E0,1.493981838E0,7.948749542E0,2.183511972E0
1.975216666E0,7.278373241E-1,9.806650162E0,2.317587137E0
1.995224478E0,-1.149216816E-1,9.998186111E0,2.940079689E0
2.015262499E0,-6.416460276E-1,9.241618156E0,3.026270866E0
2.035754687E0,-1.177947283E0,9.050082207E0,2.442085743E0
2.060582812E0,-7.757213712E-1,9.567230225E0,2.489969730E-1
2.085223958E0,3.447650373E-1,1.054406452E1,-9.481038451E-1
2.105267708E0,4.501099288E-1,1.128147888E1,-3.256114423E-1
2.130394270E0,-1.972822189E0,1.110909557E1,1.206677675E0
2.155193228E0,-1.264138460E0,1.074517727E1,1.359906554E0
2.175204166E0,-9.289502501E-1,1.104205799E1,1.953668594E0
2.195286458E0,-9.576806426E-2,1.199973869E1,2.116474390E0
2.220580728E0,3.447650373E-1,1.275630665E1,2.145204782E0
2.245211978E0,6.224924326E-1,1.219127464E1,2.863465309E0
2.265258333E0,1.283292055E0,1.119528675E1,2.806004286E0
2.290379687E0,-4.118026793E-1,1.024718285E1,2.767697096E0
2.310435937E0,-1.091755986E0,8.293514252E0,3.179499865E0
2.336123958E0,-1.446097851E0,5.889736176E0,1.101332784E0
2.360566145E0,-1.714248419E0,5.832275391E0,8.619125932E-2
2.385206770E0,6.416460276E-1,1.119528675E1,4.587290287E0
2.410384374E0,-3.064578176E-1,1.619437981E1,1.321599364E0
2.430557812E0,-2.317587137E0,1.768836212E1,9.289502501E-1
2.454469791E0,-4.232948780E0,1.772666931E1,5.449203014E0
2.475204166E0,-2.738966703E0,1.556231117E1,5.267243862E0
2.495215624E0,6.895300746E-1,1.288080502E1,4.395754337E0
2.515259374E0,3.007117271E0,1.119528675E1,4.319139957E0
2.535503645E0,4.376600742E0,1.005564690E1,2.097320795E0
2.560398437E0,2.719813108E0,8.389283180E0,9.576807022E-1
2.580408332E0,2.394201756E-1,5.726930618E0,3.045424461E0
2.605191145E0,-3.102885485E0,3.926490784E0,4.060565948E0
2.625213541E0,-3.342305660E0,3.466804028E0,4.778826714E0
2.650376562E0,-3.754108191E0,1.312022567E0,4.616020679E0
2.675207812E0,-1.359906554E0,9.864110947E-1,8.714894056E-1
2.700365624E0,-2.202665508E-1,5.401319027E0,8.331822157E-1
2.720372395E0,-7.757213712E-1,6.694188118E0,3.102885485E0
2.745259895E0,-1.532289028E0,1.330218506E1,7.881711960E0
2.765280207E0,-2.346317768E0,1.136767006E1,-5.995080948E0
2.790386978E0,-3.179499865E0,6.895300865E0,-3.294421434E0
2.810566145E0,2.154781580E0,1.114740276E1,2.662352324E0
2.835459374E0,-3.734954596E-1,8.504204750E0,-5.822698593E0
2.860348437E0,-4.654327869E0,2.303222084E1,1.857900500E0
2.880392187E0,-2.719813108E0,2.177765846E1,6.579266071E0
2.900399999E0,1.771709204E0,1.180820274E1,9.126696587E0
2.920411457E0,2.030282974E0,9.088389397E0,5.276820660E0
2.947934374E0,2.863465309E0,1.164539719E1,-1.149216771E0
2.970666145E0,1.886630893E0,1.588792229E1,-2.671929121E0
2.995219270E0,-1.608903527E0,1.088882923E1,3.801992416E0
3.015286978E0,3.466804028E0,1.244984865E-1,8.561665535E0
3.035899999E0,-5.564124584E0,5.640739441E0,4.223371983E0
3.060355207E0,-2.413355350E0,3.591302633E0,-2.298433542E0
3.080416666E0,2.681505978E-1,4.979939461E-1,-1.340752959E0
3.100609374E0,2.317587137E0,1.886630893E0,4.414907932E0
3.125219270E0,2.011129379E0,5.650316238E0,-3.926490784E0
3.145263020E0,2.279279947E0,1.874181175E1,5.094861031E0
3.170574999E0,-6.301538944E0,2.076251793E1,-6.129156351E-1
3.195193228E0,-3.629609823E0,1.504516315E1,8.599972725E0
3.215297916E0,-6.627150536E0,1.558146477E1,5.276820660E0
3.235830207E0,-1.675941229E0,1.732444382E1,3.572149038E0
3.260383332E0,2.193088770E0,1.508347034E1,2.001552582E0
3.285207291E0,1.723825186E-1,7.565677166E0,3.801992416E0
3.305263020E0,2.844311714E0,7.508216381E0,6.033388376E-1
3.330375520E0,8.714894056E-1,2.528276920E0,5.276820660E0
3.355220312E0,-9.002198577E-1,1.628057212E-1,6.713341713E0
3.380401041E0,-1.321599364E0,-2.777273953E-1,5.161899090E0
3.400612499E0,-2.489969730E-1,6.895300746E-1,1.685518026E0
3.425270832E0,2.135627985E0,3.169923067E0,-1.053448766E-1
3.446471353E0,-3.734954596E-1,9.375694275E0,1.829170108E0
3.470383853E0,-4.185064793E0,5.975927353E0,8.753201485E0
3.490395832E0,-2.892195702E0,7.383718014E0,1.146343803E1
3.515267186E0,-2.078166962E0,3.460100174E1,-1.073560047E1
3.535481249E0,5.305551052E0,-2.959233284E0,-1.956541634E1
3.560350520E0,-1.026633644E1,-7.584830761E0,8.686163902E0
3.580416145E0,7.728483200E0,1.244984865E0,-8.571242332E0
3.600564061E0,7.019799232E0,2.457408714E1,-1.601242065E1
3.625236978E0,-2.557007313E0,3.006159592E1,8.532935143E0
3.650357291E0,2.901772499E0,1.018972206E1,7.278373241E0
3.675195311E0,1.991975784E0,1.309149456E1,3.964797974E0
3.695271874E0,2.030282974E0,1.035252857E1,5.487510204E0
3.720394270E0,-4.434061527E0,1.199973869E1,1.244984865E0
3.745326561E0,-2.987963676E0,1.054406452E1,7.134721279E0
3.770402082E0,8.619125932E-2,3.945644379E0,5.899312973E0
3.795203645E0,1.312022567E0,-1.177947283E0,-1.752555609E0
3.815259895E0,1.628057212E-1,-1.608903527E0,-5.276820660E0
3.835516145E0,2.413355350E0,-5.650315881E-1,3.294421434E0
3.860604166E0,-4.098873138E0,5.018246651E0,2.806004286E0
3.885206770E0,-5.899312973E0,7.115567684E0,-2.106897533E-1
3.905265624E0,-2.930502892E0,2.187342644E1,1.474828243E0
3.930378124E0,-3.581725836E0,3.260902786E1,-7.661445141E-1
3.955788020E0,-1.503558636E0,1.569638634E1,2.470816135E0
3.980358332E0,-1.666364431E0,1.943134117E1,4.022258759E0
4.000382291E0,1.742978811E0,1.870350456E1,1.781286120E0
4.025269791E0,5.171475410E-1,1.093671322E1,3.189076662E0
4.050359895E0,5.746083856E-1,7.757213593E0,1.924938202E0
4.075203124E0,-1.340752989E-1,4.098873138E0,4.118026733E0
4.095263020E0,7.852981687E-1,-2.585737705E-1,6.062118530E0
4.115282811E0,7.278373241E-1,-3.275267839E0,8.082824707E0
4.135508332E0,-7.086837292E-1,-6.512228489E0,9.232041359E0
4.160371874E0,-1.695094824E0,-8.485051155E0,3.074155092E0
4.185196353E0,3.323152065E0,1.292868972E0,-1.580173135E0
4.210353124E0,4.050989151E0,1.564850235E1,-5.190629482E0
4.230379166E0,1.829170108E0,2.145204735E1,-3.409343243E0
4.255209895E0,-9.691728592E0,1.574427032E1,1.793735886E1
4.280386457E0,-9.605537415E0,2.415270615E1,-1.346499062E1
4.305207811E0,-1.647210717E0,-6.933608055E0,-1.037168217E1
4.325278124E0,-4.922478676E0,-6.962338448E0,2.279279947E0
4.350356249E0,9.911994934E0,-8.695740700E0,-4.673481941E0
4.370581249E0,4.280832767E0,1.554315758E1,-1.221042824E1
4.395216666E0,-8.255207062E0,6.724833679E1,9.097966552E-1
4.415277082E0,7.565677166E0,1.010353088E1,6.071695328E0
4.447034895E0,5.056553841E0,1.040998936E1,3.926490784E0
4.470352603E0,-5.094861031E0,1.314895535E1,-5.554547906E-1
4.490363541E0,-1.093671322E1,1.331176186E1,3.821146011E0
4.510380207E0,-3.581725836E0,9.883264542E0,5.085284233E0
4.530402603E0,9.481038451E-1,5.975927353E0,3.055001259E0
4.550498436E0,5.343858242E0,1.695094824E0,2.011129379E0
4.575197915E0,4.932055473E0,4.213795066E-1,-7.661445141E-1
4.595222915E0,-1.905784607E0,5.477933407E0,-8.044517636E-1
4.615270832E0,-1.714248419E0,5.363011837E0,3.428496838E0
4.635529165E0,-3.055001259E0,3.102885485E0,-1.053448766E-1
4.660380207E0,-2.317587137E0,6.272808552E0,-2.221819162E0
4.680580207E0,-2.489969730E-1,2.002510262E1,-8.140285611E-1
4.705209374E0,9.864110947E-1,2.542642212E1,2.758120298E0
4.730380728E0,-3.725377798E0,1.729571342E1,2.671929121E0
4.755205207E0,-3.581725836E0,2.285026169E1,2.327163935E0
4.780411978E0,3.792415380E0,2.080082512E1,2.509123325E0
4.800559374E0,7.824251175E0,1.599326706E1,1.005564690E0
4.825184895E0,4.041412354E0,1.165497398E1,1.685518026E0
4.845236978E0,6.129156351E-1,7.527369976E0,3.447650433E0
4.865287499E0,-9.002198577E-1,3.926490784E0,4.175487995E0
4.890375520E0,-1.340752989E-1,2.078166962E0,4.127603531E0
4.910376040E0,-4.118026793E-1,-3.543418646E-1,5.142745018E0
4.947601040E0,-3.189076662E0,-1.127190113E1,-8.140285611E-1
4.970356249E0,3.667917013E0,-7.201758862E0,-1.110909581E0
4.990645311E0,2.499546528E0,8.140285611E-1,-3.945644379E0
5.015274478E0,-1.675941229E0,1.932599640E1,-3.208230257E0
5.035517707E0,-7.852981567E0,1.985272026E1,1.154962921E1
5.060591665E0,-8.149862289E0,1.390552330E1,2.442085648E1
5.085194790E0,-2.700659513E0,1.669237518E1,-3.226426315E1
5.105253124E0,5.391742229E0,9.959878922E-1,-9.414001465E0
5.130441145E0,6.435614109E0,-3.256114423E-1,6.464344501E0
5.155213540E0,6.090848923E0,-7.019799232E0,-9.059659004E0
5.180378124E0,-1.149216771E0,3.447650528E1,-6.933608055E0
5.200604165E0,-1.301488018E1,5.466441345E1,8.236053467E0
5.225257811E0,9.414001465E0,8.465897560E0,5.525817394E0
5.250372915E0,3.361459255E0,1.192312431E1,4.041412354E0
5.270450520E0,-8.331822157E-1,1.232535076E1,1.340752989E-1
5.295286457E0,-6.244078159E0,1.114740276E1,4.587290287E0
5.320386978E0,-1.312022567E0,4.587290287E0,5.497087002E0
5.340401040E0,3.045424461E0,1.446097851E0,2.375048161E0
5.365268749E0,6.866570473E0,-7.661445141E-1,-2.260126352E0
5.390367186E0,2.873042040E-2,4.683058739E0,-4.979939461E-1
5.410397395E0,-2.394201756E0,4.730942726E0,3.706224203E0
5.430571874E0,-6.809109688E0,3.189076662E0,2.968810201E-1
5.455563020E0,-6.387730122E0,2.930502892E0,-3.734954596E-1
5.480382811E0,1.503558636E0,1.739148140E1,1.532289088E-1
5.505201040E0,1.105163479E1,4.889917374E1,-1.110909581E0
5.525217707E0,-4.252102375E0,1.351287460E1,-1.484405041E0
5.545353124E0,-8.006210327E0,1.703713989E1,5.928043365E0
5.570579686E0,1.053448766E-1,1.921107483E1,4.012681961E0
5.595242707E0,7.536946774E0,1.772666931E1,3.734954596E-1
5.615255728E0,7.278373241E0,1.442267132E1,1.302445769E0
5.635799478E0,4.568136692E0,1.043871975E1,1.503558636E0
5.660564582E0,3.830722570E-1,5.889736176E0,3.495534420E0
5.685221874E0,-1.733402014E0,2.566584110E0,5.248090267E0
5.705269790E0,-3.112462282E0,-1.379060149E0,6.368576527E0
5.730353124E0,-5.161899090E0,-9.586383820E0,4.472368717E0
5.750385936E0,-1.005564690E0,-1.321599293E1,-1.225831270E0
5.770398957E0,6.770802498E0,-5.966350555E0,-1.810016513E0
5.795199478E0,5.612008572E0,5.746084213E0,-6.301538944E0
5.815257811E0,2.729389906E0,2.360682869E1,-5.659893036E0
5.835878124E0,-6.186617374E0,2.369301987E1,1.029506683E1
5.860369269E0,-1.198058510E1,2.079124832E1,1.531331444E1
5.885211978E0,-6.062118530E0,9.241618156E0,-2.568499565E1
5.905215103E0,2.250549555E0,-8.216899872E0,-5.832275391E0
5.930354165E0,3.055001259E0,-6.426037312E0,2.221819162E0
5.951645311E0,1.049618053E1,-9.030928612E0,-1.035252857E1
5.975219269E0,7.814674377E0,3.403597260E1,-9.950302124E0
5.995223436E0,-1.578257751E1,6.639600372E1,7.278373241E-1
6.015259894E0,6.263231754E0,5.506663799E0,7.709329605E0
6.035790624E0,7.201758862E0,7.268796444E0,5.228936672E0
6.060377082E0,1.771709204E0,1.291911221E1,5.075707436E-1
6.085208332E0,-6.311115742E0,1.391510010E1,3.706224203E0
6.110629165E0,-3.083731890E0,1.078348446E1,1.061110210E1
6.135809374E0,2.777273893E0,5.018246651E0,-2.173935175E0
6.160364582E0,7.479485989E0,-1.628057212E-1,-1.628057122E0
6.180419269E0,7.852981567E0,2.940079689E0,7.565677166E0
6.205189582E0,1.532289028E0,5.094861031E0,2.384624958E0
6.225220311E0,-8.513781548E0,4.491522312E0,-6.033388138E0
6.245298957E0,-8.207323074E0,1.139639974E0,-1.340752959E0
6.270560936E0,-2.691082716E0,4.711789131E0,4.060565948E0
6.295191144E0,6.263231754E0,2.432508850E1,3.122039080E0
6.315321353E0,3.476380825E0,4.114196014E1,-3.055001259E0
6.335566144E0,-7.498639584E0,1.752555656E1,-4.118026793E-1
6.360571874E0,-2.011129379E0,1.921107483E1,6.081272125E0
6.385217186E0,3.428496838E0,1.916319084E1,3.150769472E0
6.410353124E0,7.412448406E0,1.420240402E1,-6.703764945E-2
6.446611978E0,2.643198729E0,8.389283180E0,9.385270476E-1
6.470359894E0,-4.309563041E-1,2.853888512E0,2.183511972E0
6.490643749E0,-9.481038451E-1,5.841852427E-1,3.734954596E0
6.515254165E0,-5.027823448E0,-6.224924564E0,5.190629482E0
6.535895832E0,-1.379060149E0,-1.354160500E1,2.518700123E0
6.560376040E0,5.190629482E0,-9.088389397E0,-3.447650373E-1
6.585217186E0,-3.256114423E-1,4.357447147E0,-5.707777023E0
6.610358332E0,-4.070142746E0,2.070505714E1,-2.183511972E0
6.630614582E0,-1.355118179E1,2.057098007E1,2.071463394E1
6.655186978E0,-7.364564419E0,2.663310051E1,-1.272757626E1
6.675220832E0,6.847416878E0,-3.447650433E0,-1.363737297E1
6.700380728E0,6.224924564E0,-2.384624958E0,3.945644379E0
6.725205728E0,7.307103634E0,-5.698200226E0,-1.208592987E1
6.745351040E0,4.434061527E0,1.622311020E1,-9.739612579E0
6.770353123E0,-1.944091797E1,5.879201508E1,-1.302445769E0
6.790597915E0,4.261679173E0,1.116655636E1,1.271799946E1
6.815341665E0,6.751648903E0,1.136767006E1,3.849876404E0
6.835902082E0,2.059013367E0,1.436521053E1,4.788403511E-1
6.860566144E0,-6.569689274E0,1.162624359E1,6.129156113E0
6.885226040E0,-2.748543501E0,6.378153324E0,5.018246651E0
6.905278123E0,3.160346270E0,4.558559895E0,8.523358107E-1
6.930377603E0,1.039083576E1,-1.819593310E-1,1.110909581E0
6.951261457E0,5.209783077E0,4.759673119E0,3.198653460E0
6.975198957E0,2.164358377E0,4.481945515E0,1.589749932E0
6.995206769E0,-4.252102375E0,4.223371983E0,-2.193088770E0
7.015306248E0,-8.628703117E0,4.405331016E-1,-6.550535679E0
7.035939582E0,-7.115567684E0,1.340752959E0,-6.703764796E-1
7.060358332E0,-1.091755986E0,1.487278080E1,5.908889771E0
7.080369790E0,1.034295177E1,4.362235641E1,1.628057122E0
7.100623957E0,-4.357447147E0,2.098278427E1,-3.265691042E0
7.125210415E0,-5.602431774E0,2.150950813E1,7.805097580E0
7.145398957E0,1.043871999E0,2.438254929E1,3.945644379E0
7.170548957E0,7.920019150E0,1.864604378E1,-3.543418646E-1
7.195198436E0,5.659893036E0,1.336922264E1,-6.224924326E-1
7.215287498E0,3.409343243E0,8.360552788E0,6.416460276E-1
7.235892707E0,-3.830722719E-2,3.955221176E0,9.002198577E-1
7.260354165E0,-1.771709204E0,-1.829170108E0,2.719813108E0
7.285206769E0,-4.290409565E0,-1.013226128E1,4.414907932E0
7.310348436E0,-5.554547906E-1,-1.907699966E1,2.193088770E0
7.330376561E0,2.758120298E0,-8.647856712E0,-6.761225700E0
7.350385415E0,2.547430515E0,2.375048161E0,-1.006522369E1
7.370406248E0,4.156333923E0,2.640325546E1,-4.146757126E0
7.395195311E0,-1.093671322E1,2.576161003E1,2.053267288E1
7.415288540E0,-1.081221485E1,1.094629002E1,1.404917526E1
7.446481769E0,-8.331822157E-1,1.136767006E1,-3.674620819E1
7.470377082E0,6.876147270E0,-1.886630893E0,5.765237808E0
7.490384373E0,6.914454460E0,-7.086837292E-1,8.044517636E-1
7.510389582E0,5.114014626E0,-2.806004286E0,-1.005564690E1
7.530606769E0,5.420472622E0,2.182554245E1,-5.535394192E0
7.555242707E0,-1.546654320E1,4.503972244E1,5.276820660E0
7.575294790E0,9.854534149E0,1.087925243E1,9.710882187E0
7.600573957E0,9.299078941E0,1.251688671E1,1.991975784E0
7.625272915E0,-4.845864296E0,1.215296745E1,3.169923067E0
7.650388019E0,-7.316680431E0,7.891288757E0,1.056321812E1
7.670577603E0,-9.576807022E-1,7.019799232E0,3.198653460E0
7.695220311E0,9.002198219E0,2.796427488E0,-2.920926094E0
7.715277082E0,9.385271072E0,-1.915361285E-1,-2.145204782E0
7.735784373E0,1.216254473E0,5.487510204E0,5.363011837E0
7.760353123E0,-3.380612850E0,5.190629482E0,3.485957623E0
7.780399478E0,-9.634267807E0,2.595314741E0,-5.458779812E0
7.805217707E0,-6.885724068E0,7.469909191E-1,-5.650316238E0
7.830373957E0,-8.619125932E-2,1.111867237E1,6.512228489E0
7.850583852E0,8.398859978E0,3.570233536E1,4.175487995E0
7.875213019E0,-5.161899090E0,2.055182648E1,-4.194641590E0
7.895215623E0,-3.409343243E0,2.030282974E1,7.345410824E0
7.915272915E0,-8.619125932E-2,2.503377342E1,6.512228489E0
7.947872394E0,5.363011837E0,2.129881859E1,-1.015141487E0
7.970591144E0,4.156333923E0,1.364694977E1,6.991068721E-1
7.995209373E0,4.118026793E-1,6.962338448E0,2.346317768E0
8.015259894E0,-9.672574997E-1,1.675941229E0,3.514688015E0
8.035802082E0,2.298433632E-1,-1.244984865E0,3.169923067E0
8.060373436E0,-3.064578056E0,-8.236053467E0,3.189076662E0
8.080378644E0,-6.636727333E0,-1.889504051E1,-9.576806799E-3
8.100557811E0,5.305551052E0,-1.172201157E1,-2.920926094E0
8.120559373E0,3.361459255E0,-3.447650433E0,-8.896853447E0
8.145276040E0,4.750096321E0,1.326387787E1,-8.350975990E0
8.170384373E0,-5.851428986E0,3.565445328E1,2.074336433E1
8.195205207E0,-1.424071217E1,1.307234097E1,1.408748245E1
8.215350519E0,-3.246537447E0,1.811931801E1,-1.958456993E1
8.235540623E0,1.733402014E0,-3.332728863E0,-1.868435097E1
8.260410936E0,8.025363922E0,1.436520964E-1,5.401319027E0
8.280421352E0,9.481039047E0,3.284844637E0,-9.299078941E0
8.300611977E0,4.644751072E0,1.118570995E1,-1.207635307E1
8.325196873E0,-1.847365952E1,4.466622543E1,1.915361404E0
8.345280207E0,2.135627985E0,2.234268951E1,1.248815632E1
8.370396873E0,1.453759289E1,1.178904915E1,1.589749932E0
8.390401040E0,5.525817394E0,1.532289124E1,-2.432508945E0
8.410570832E0,-7.632715225E0,1.048660374E1,4.453215122E0
8.447426040E0,-5.525817394E0,6.703764915E0,4.491522312E0
8.470397915E0,6.081272125E0,1.742978811E0,1.063025594E0
8.495318227E0,6.914454460E0,1.388636947E0,3.639186621E-1
8.520373957E0,6.703764796E-1,5.027823448E0,2.700659513E0
8.540392707E0,-8.331822157E-1,3.916913986E0,1.149216771E0
8.560657290E0,-4.089296341E0,2.097320795E0,-3.926490784E0
8.585267186E0,-6.646304131E0,2.777273953E-1,-2.614468336E0
8.610358852E0,-2.020706177E0,9.643844604E0,3.227383852E0
8.630611977E0,1.113782597E1,4.335420609E1,4.424484730E0
8.655195311E0,-3.974374771E0,2.059971237E1,-3.141192675E0
8.675210936E0,-3.715801001E0,1.718079185E1,4.874594688E0
8.700397394E0,-7.469909191E-1,2.308010483E1,4.970362663E0
8.725210415E0,6.014234543E0,2.219903755E1,-1.484405041E0
8.745264061E0,7.833827972E0,1.478658962E1,1.963245392E0
8.765286977E0,4.060565948E0,8.810662270E0,3.160346270E0
8.790389582E0,-7.278373241E-1,4.797980309E0,3.552995205E0
8.810583852E0,-6.895300746E-1,-3.734954596E-1,2.643198729E0
8.835486457E0,-5.650315881E-1,-5.267243862E0,2.873042107E0
8.860353123E0,-5.209783077E0,-1.861731148E1,-1.369483352E0
8.880590102E0,1.695094824E0,-1.083136845E1,-2.614468336E0
8.905215102E0,2.240972757E0,7.182605267E-1,-1.109951878E1
8.930380206E0,1.819593310E0,1.927811241E1,-6.703764915E0
8.951301561E0,-7.891288757E0,3.432327652E1,2.132754898E1
8.975211456E0,-1.007480049E1,1.951753235E1,2.314714241E1
8.995248956E0,6.665457726E0,1.296699619E1,-3.255156708E1
9.015336977E0,4.750096321E0,-9.155426979E0,-1.578257751E1
9.035852081E0,-3.294421434E0,-1.000776291E1,1.075475407E1
9.060360415E0,8.858546257E0,-6.445190907E0,-4.472368717E0
9.080551561E0,4.759673119E0,1.013226128E1,-6.358999729E0
9.100591665E0,-6.320692539E0,6.773675537E1,-1.238281155E1
9.125276040E0,1.561019540E0,1.399171448E1,9.375694275E0
9.150567186E0,8.389283180E0,1.164539719E1,1.254561663E0
9.170575519E0,-4.884171486E0,1.415452003E1,-2.011129379E0
9.195298436E0,-1.311064816E1,9.184157372E0,1.007480049E1
9.220345311E0,-3.485957623E0,5.612008572E0,4.529829502E0
9.240401561E0,8.044517517E0,4.501099110E0,1.474828243E0
9.265275519E0,1.149216843E1,-6.991068721E-1,-4.165910721E0
9.290374998E0,2.470816135E0,7.115567684E0,6.684611320E0
9.310379165E0,-8.427590132E-1,5.391742229E0,3.093308687E0
9.330625519E0,-6.358999729E0,1.053448796E0,-3.926490784E0
9.355209373E0,-7.584830761E0,-1.034295082E0,-2.001552582E0
9.375217706E0,-2.384624958E0,3.734954596E0,3.313575268E0
9.400390102E0,1.240196514E1,3.136404228E1,7.948749661E-1
9.425261977E0,3.323152065E0,3.197695732E1,-8.916007042E0
9.447083852E0,-6.272808552E0,1.403002167E1,-9.576806799E-3
9.470407290E0,-5.200206280E0,2.115516663E1,7.460332394E0
9.490602081E0,1.474828243E0,1.988145065E1,1.915361360E-2
9.515383852E0,6.981492043E0,1.609861183E1,1.379060149E0
9.535513019E0,4.932055473E0,1.061110210E1,3.093308687E0
9.560348956E0,1.369483352E0,5.679046631E0,1.723825216E0
9.580373956E0,-4.788403213E-2,1.714248419E0,6.512228847E-1
9.605209894E0,-4.884171486E-1,-1.532289028E0,-1.915361360E-2
9.630450519E0,-5.679046631E0,-1.029506683E1,9.768342972E-1
9.655202081E0,1.838746905E0,-1.338837624E1,7.661445141E-1
9.675284894E0,5.353435040E0,-5.066130638E0,-4.491522312E0
9.700545831E0,2.011129379E0,6.617573261E0,-1.141555405E1
9.725218748E0,-3.907337189E0,3.597048569E1,1.710417747E1
9.745282290E0,-1.843535233E1,2.527319336E1,2.533065414E1
9.770362498E0,-2.106897593E0,2.386540222E1,-1.951753235E1
9.790364061E0,4.836287498E0,-3.907337189E0,-2.393243980E1
9.815260936E0,-4.108449936E0,-7.795520782E0,1.293826580E1
9.835869790E0,1.107078838E1,-6.435614109E0,-2.394201756E0
9.860366665E0,7.297526836E0,4.960785866E0,-9.548076630E0
9.880381769E0,1.647210717E0,6.518932343E1,-6.493074894E0
9.905264581E0,1.168370485E0,1.609861183E1,9.404424667E0
9.930353123E0,9.653421402E0,8.073247910E0,3.667917013E0
9.956697915E0,2.346317768E0,1.798524284E1,7.757213712E-1
9.980346873E0,-1.297657299E1,1.233492756E1,4.606443882E0
1.000036979E1,-8.705317497E0,8.092401505E0,5.171475887E0
1.002527396E1,6.311115742E0,2.489969730E0,-4.089296341E0
1.005042760E1,5.477933407E0,-9.959878922E-1,-5.420472622E0
1.007520364E1,2.106897593E0,1.991975784E0,5.382165432E0
1.010041302E1,-5.793968201E0,2.920926094E0,-6.224924326E-1
1.012054948E1,-7.814674377E0,3.830722809E0,-2.394201756E0
1.014530156E1,-3.715801001E0,3.150769472E0,2.547430515E0
1.017039687E1,1.762132406E0,6.090848923E0,8.073247910E0
1.019521042E1,1.169328117E1,4.334462738E1,4.903325081E0
1.021526667E1,-9.097966552E-1,3.684197617E1,-1.044829655E1
1.023583229E1,-1.666364431E0,1.066856289E1,2.873041928E-1
1.026058385E1,4.788403511E-1,1.207635307E1,9.797073364E0
1.028521302E1,6.799532771E-1,1.104205799E1,4.481945515E0
1.030530677E1,2.489969730E0,5.736507416E0,4.970362663E0
1.033036198E1,-6.033388376E-1,1.034295082E0,6.110002518E0
1.035523906E1,-5.746084079E-2,1.685518026E0,6.033388138E0
1.038037864E1,-7.278373241E-1,1.896207690E0,7.824251175E0
1.040520156E1,-1.589749932E0,-5.746084079E-2,9.969455719E0
1.042521771E1,-1.082179189E0,-4.539406300E0,7.230489254E0
1.044710573E1,1.264138460E0,-6.062118530E0,3.495534420E0
1.047058385E1,8.944737434E0,4.453215122E0,2.729389906E0
1.049523177E1,2.078166962E0,1.138682365E1,-2.978386879E0
1.051525104E1,-3.734954596E0,1.401086807E1,-1.742978811E0
1.053589687E1,-1.528458405E1,6.498821259E1,1.688391113E1
1.056056979E1,-6.349422932E0,4.271255970E0,-1.340752989E-1
1.058520833E1,-1.016099167E1,-2.183511925E1,1.502600956E1
1.061039010E1,2.030282974E1,-1.749682617E1,-1.283292055E0
1.063548073E1,5.985504150E0,7.833827972E0,-8.829815865E0
1.066040937E1,1.525585365E1,7.546524048E1,-5.315127850E0
1.068519479E1,2.193088770E0,1.513135433E1,-2.011129409E-1
1.070521562E1,-8.753201485E0,-2.451662540E0,1.405875206E1
1.073059687E1,2.911349297E0,1.021845245E1,1.915361404E0
1.075520833E1,-1.072602391E0,1.945049477E1,-9.481038451E-1
1.078037708E1,-1.002691650E1,1.092713642E1,9.107542992E0
1.080037864E1,2.719813108E0,-1.474828243E0,-3.734954596E-1
1.082522292E1,7.977479935E0,8.906430602E-1,-3.380612850E0
1.085037239E1,1.350329757E0,-5.286397457E0,3.869029999E0
1.087039271E1,-2.442085743E0,4.673481941E0,2.662352324E0
1.089058594E1,-5.650316238E0,4.252102375E0,-8.044517636E-1
1.091526354E1,-5.018246651E0,2.844311714E0,3.399766445E0
1.094774531E1,-7.805097580E0,1.868435097E1,8.216899872E0
1.097035052E1,-4.050989151E0,3.659297943E1,3.495534420E0
1.099060781E1,2.413355350E0,2.501461983E1,5.650316238E0
1.101529792E1,-4.520252705E0,1.657745171E1,5.966350555E0
1.103584739E1,1.675941229E0,1.858858109E1,3.581725836E0
1.106036458E1,6.789956093E0,1.398213768E1,9.346963882E0
1.108038437E1,5.640739441E0,7.603984833E0,7.843404770E0
1.110527916E1,7.431602001E0,-1.474828243E0,5.046977043E0
1.113037812E1,1.005564690E0,-2.193088770E0,2.911349297E0
1.115039323E1,3.639186621E-1,-1.426944256E0,1.206677675E0
1.117520364E1,-1.963245392E0,3.064578176E-1,3.754108191E0
1.119528125E1,-8.140285611E-1,-4.702212334E0,1.953668594E0
1.121530000E1,2.164358377E0,-8.398859978E0,-3.083731890E0
1.123552083E1,-5.267243981E-1,6.129156113E0,-2.595314741E0
1.126036979E1,-3.734954596E-1,1.184650993E1,6.062118530E0
1.128519583E1,-1.436521053E0,1.506431675E1,1.522712231E0
1.131035729E1,-4.309563041E-1,2.539769173E1,-6.770802498E0
1.133037291E1,-1.344583702E1,1.806185722E1,-7.469909191E-1
1.135520729E1,-1.331176162E0,-5.516240597E0,4.491522312E0
1.137521198E1,6.454767704E0,2.202665567E0,-6.426037312E0
1.139529739E1,5.468356609E0,6.320692301E-1,-4.989516258E0
1.141532864E1,1.600284386E1,2.993709755E1,-7.393294811E0
1.144754375E1,-5.075707436E0,3.425623703E1,6.387730122E0
1.147037708E1,-2.671929121E0,1.359906578E1,1.185608673E1
1.149058437E1,-4.501099110E0,1.334049225E1,4.309563041E-1
1.151528437E1,-7.709329605E0,8.427590370E0,1.819593310E-1
1.153581823E1,-2.844311714E0,3.495534420E0,3.648763418E0
1.156041562E1,6.924031258E0,1.177947283E0,4.654327869E0
1.158042708E1,5.755661011E0,2.240972757E0,-6.742072105E0
1.160520833E1,1.723825186E-1,3.466804028E0,3.773261786E0
1.163040573E1,-3.734954596E0,1.963245392E0,5.784391403E0
1.165521041E1,-4.922478676E0,9.481038451E-1,-1.321599364E0
1.168035833E1,5.937620401E-1,2.978386879E0,-1.063025594E0
1.170035833E1,4.041412354E0,1.527500725E1,3.869029999E0
1.172057344E1,3.916913986E0,4.755842209E1,7.278373241E-1
1.174528281E1,-1.379060149E0,1.557188797E1,1.359906554E0
1.177062552E1,-3.198653460E0,2.144247055E1,7.527369976E0
1.179521198E1,-1.522712231E0,2.170104408E1,3.945644379E0
1.181528021E1,3.533841610E0,1.669237518E1,2.911349297E0
1.183590260E1,3.035847664E0,1.229662037E1,3.754108191E0
1.186036719E1,1.589749932E0,5.104437828E0,5.688623428E0
1.188036718E1,1.053448766E-1,3.007117271E0,2.949656487E0
1.190520000E1,-1.522712231E0,-7.565677166E-1,4.979939461E0
1.193035937E1,-2.738966703E0,-4.807557106E0,3.974374771E0
1.195079323E1,9.576806426E-2,-6.196194172E0,-2.308010340E0
1.197523646E1,3.198653460E0,-5.592854977E0,-5.430049419E0
1.199534739E1,1.618480325E0,-5.937620401E-1,-2.317587137E0
1.201538698E1,-8.044517636E-1,8.571242332E0,4.405331016E-1
1.203551719E1,-2.240972757E0,1.887588692E1,7.019799232E0
1.206040416E1,-7.814674377E0,2.637452507E1,1.742978859E1
1.208057604E1,1.536119843E1,2.125093460E1,-2.642240906E1
1.210527135E1,-1.756386375E1,-2.384624958E0,-3.725377798E0
1.213039166E1,8.983044624E0,-3.160346150E-1,6.866570473E0
1.215057708E1,3.371036053E0,9.471462250E0,-9.097966194E0
1.217521562E1,-4.692635536E0,2.808877373E1,-3.160346150E-1
1.220065468E1,-8.580819130E0,3.453396606E1,6.033388138E0
1.222520833E1,-1.359906554E0,1.457590008E1,7.144298077E0
1.225058646E1,-7.374141216E-1,9.270348549E0,4.118026733E0
1.227520729E1,-3.208230257E0,1.551442719E1,2.279279947E0
1.230035729E1,-2.231395960E0,9.136273384E0,2.116474390E0
1.232519427E1,-3.064578176E-1,2.557007313E0,6.569689274E0
1.234535052E1,4.338293552E0,-1.647210717E0,3.859453201E0
1.237040573E1,3.715801001E0,1.848323703E0,-1.570596337E0
1.239520469E1,1.666364431E0,4.865017891E0,3.543418646E-1
1.241526458E1,-2.671929121E0,-4.596867263E-1,1.024718285E0
1.244737969E1,-3.562572241E0,5.937620401E-1,-3.754108191E0
1.247037239E1,-3.936067581E0,1.023760605E1,-4.884171486E-1
1.249519427E1,-5.439626217E0,3.581725693E1,4.740519524E0
1.251532604E1,-6.617573261E0,2.444001007E1,1.216254473E0
1.253584271E1,-3.572149038E0,1.515050793E1,9.481039047E0
1.256057135E1,-7.508216381E0,2.054224968E1,7.134721279E0
1.258521927E1,-5.487510204E0,2.127008820E1,4.252102375E0
1.261036302E1,-1.244984865E-1,1.558146477E1,4.644751072E0
1.263055260E1,-6.033388376E-1,8.226476669E0,5.305551052E0
1.265521510E1,-6.416460276E-1,1.417367458E0,3.945644379E0
1.267521666E1,1.915361285E-1,-2.700659513E0,2.480392933E0
1.269530312E1,1.340752989E-1,-4.673481941E0,2.873041928E-1
1.272035781E1,4.596867263E-1,-1.035252857E1,-5.439626217E0
1.274036562E1,4.185064793E0,-6.598419666E0,-2.968810201E-1
1.276041302E1,4.232948780E0,1.896207690E0,-7.661445141E-1
1.278527812E1,-3.390189648E0,9.758766174E0,1.924938202E0
1.281062552E1,-8.322244644E0,1.954626274E1,4.702212334E0
1.283586198E1,-3.217807055E0,1.667322159E1,7.814674377E0
1.286035885E1,-3.198653460E0,1.417367458E0,-5.937620163E0
1.288037344E1,-6.933608055E0,8.810662031E-1,9.959878922E-1
1.290039271E1,2.250549555E0,1.425986576E1,2.106897593E0
1.292057760E1,-3.744531393E0,1.114740276E1,9.576806799E-3
1.294784323E1,-1.647210717E0,2.376005745E1,8.006210327E0
1.297058125E1,1.819593310E-1,2.241930389E1,8.073247910E0
1.299059271E1,2.547430515E0,1.462378407E1,9.586383820E0
1.301527760E1,-8.906430602E-1,1.329260826E1,2.336740971E0
1.303552656E1,-5.181052685E0,1.053448772E1,-2.777273953E-1
1.306040833E1,-7.134721279E0,4.903325081E0,6.129156351E-1
1.308520000E1,-1.800439715E0,7.125144482E0,3.983951569E0
1.310523281E1,-1.197100878E0,4.309563160E0,5.075707436E-1
1.313038385E1,-2.059013367E0,4.884171486E-1,2.202665508E-1
1.315056666E1,-3.217807055E0,1.235408068E0,4.960785866E0
1.317519896E1,-1.455674648E0,1.551442742E0,-1.474828243E0
1.320056250E1,2.135627985E0,8.944737434E0,9.959878922E-1
1.322520416E1,6.646304131E0,2.681505966E1,-5.123591423E0
1.324521406E1,-3.045424461E0,1.857900429E1,2.920926094E0
1.326529010E1,-5.037400246E0,2.693955803E1,8.331821442E0
1.329040781E1,-3.945644379E0,2.559880447E1,6.636727333E0
1.331526354E1,-2.106897593E0,1.794693565E1,7.220912457E0
1.333582083E1,8.619126081E-1,1.448970890E1,6.119579315E0
1.336041927E1,2.987963676E0,8.695740700E0,5.803544998E0
1.338059062E1,3.208230257E0,4.979939461E0,5.410895824E0
1.340520416E1,1.436521053E0,1.819593310E-1,4.424484730E0
1.343044844E1,-1.819593310E0,-3.313575268E0,6.703764796E-1
1.345536354E1,1.752555609E0,-5.267243862E0,-4.127603531E0
1.348061094E1,5.956773758E0,-4.319139957E0,-5.027823448E0
1.350527291E1,2.106897593E0,2.384624958E0,1.877054095E0
1.353064323E1,1.618480325E0,1.459505367E1,9.069235802E0
1.355521406E1,-3.495534420E0,6.397306919E0,5.267243862E0
1.357522187E1,-1.944091797E0,6.885724068E0,-6.358999729E0
1.359626198E1,-3.284844637E0,9.950302124E0,-2.173935175E0
1.362056302E1,2.959233284E0,1.887588692E1,6.215347767E0
1.364519010E1,-5.650315881E-1,1.138682365E1,-2.355894566E0
1.366528177E1,-3.897760391E0,7.019799232E0,4.750096321E0
1.369058177E1,-1.867477298E0,2.080082512E1,6.138733387E0
1.371058594E1,8.044517636E-1,2.360682869E1,2.758120298E0
1.373579896E1,2.978386879E0,2.019748497E1,3.514688015E0
1.376060989E1,-1.647210717E0,1.174116516E1,3.256114244E0
1.378519635E1,-3.744531393E0,3.265691042E0,4.826710701E0
1.380521406E1,-1.149216771E0,2.767697096E0,3.543418407E0
1.383039114E1,4.060565948E0,3.160346270E0,2.537853718E0
1.385039948E1,1.254561663E0,3.821146011E0,8.236053586E-1
1.387519583E1,-2.394201756E-1,1.561019540E0,2.604891539E0
1.390037604E1,-5.564124584E0,-2.873041928E-1,4.644751072E0
1.392518750E1,-5.975927353E0,2.576161146E0,-2.087743998E0
1.394761666E1,-3.390189648E0,1.098459721E1,7.661445141E-1
1.397037552E1,3.150769472E0,3.242706680E1,-1.071644688E1
1.399042916E1,-1.733402014E0,1.774582291E1,7.096413612E0
1.401525833E1,-6.368576527E0,2.213199997E1,1.267011547E1
1.403585156E1,-8.063671112E0,2.304179764E1,6.138733387E0
1.406057812E1,-1.043871999E0,2.046563530E1,5.056553841E0
1.408521354E1,2.135627985E0,1.606030464E1,9.193734169E0
1.410526718E1,2.173935175E0,1.040998936E1,7.240066051E0
1.413037864E1,-4.118026793E-1,5.525817394E0,2.183511972E0
1.415042500E1,-6.703764945E-2,3.505111217E0,1.819593310E0
1.417521614E1,3.734954596E-1,-3.351882398E-1,2.011129379E0
1.420039791E1,5.746084079E-2,-8.599972725E0,3.160346150E-1
1.422527396E1,3.945644379E0,-1.069729328E1,-1.254561663E0
1.425037760E1,6.110002518E0,-3.744531393E0,-2.470816135E0
1.427039948E1,-1.532289088E-1,5.861005783E0,-8.331822157E-1
1.429057344E1,-9.366117477E0,2.473689270E1,6.560112476E0
1.431528594E1,-9.174580574E0,1.942176437E1,5.363011837E0
1.433579531E1,-8.322244644E0,7.412448406E0,-5.027823448E0
1.436056354E1,2.509123325E0,4.577713490E0,-2.489969730E-1
1.438520312E1,-9.576806799E-3,-1.042914295E1,-6.416460276E-1
1.441056823E1,7.211335659E0,9.308655739E0,-7.747636795E0
1.444764791E1,-6.445190907E0,2.990836716E1,7.757213712E-1
1.447039583E1,-1.227746677E1,2.933375931E1,5.516240597E0
1.449057396E1,-3.064578176E-1,1.296699619E1,1.016099167E1
1.451060989E1,4.817133904E0,1.304361057E1,3.639186621E0
1.453589583E1,-2.212242365E0,1.890461731E1,-1.474828243E0
1.456036771E1,-6.856993675E0,7.422025204E0,4.194641590E0
1.458037656E1,-4.596867085E0,6.789956093E0,2.892195702E0
1.460520260E1,6.129156351E-1,5.094861031E0,4.979939461E0
1.462521614E1,4.874594688E0,2.106897593E0,3.064578176E-1
1.465041562E1,5.985504150E0,5.803544998E0,-1.340752959E0
1.467520729E1,3.438073635E0,4.491522312E0,2.959233284E0
1.469526198E1,-3.552995205E0,2.106897533E-1,4.108449936E0
1.472038125E1,-7.680599213E0,-4.979939461E-1,-3.390189648E0
1.474061458E1,-2.997540474E0,7.163451672E0,-2.078166962E0
1.476536406E1,-9.481038451E-1,2.903687859E1,-4.175487995E0
1.479063750E1,-3.428496838E0,2.014960098E1,5.592854977E0
1.481527604E1,-4.759673119E0,2.248634148E1,9.375694275E0
1.483549844E1,-3.763684988E0,2.275449371E1,3.916913986E0
1.486039531E1,-1.656787634E0,2.106897545E1,3.141192675E0
1.488058489E1,2.145204782E0,1.844492912E1,4.434061527E0
1.490521614E1,-4.979939461E-1,1.099417400E1,6.550535679E0
1.493042031E1,-1.666364431E0,5.363011837E0,3.524264812E0
1.495070469E1,-1.493981838E0,2.116474390E0,2.662352324E0
1.497520521E1,-2.298433542E0,-3.552995205E0,1.675941229E0
1.499536614E1,-2.710236311E0,-7.096413612E0,-8.906430602E-1
1.502039010E1,2.193088770E0,-1.197100830E1,-1.982398987E0
1.504521510E1,5.659893036E0,-5.707777023E0,-2.164358377E0
1.506528646E1,1.082179189E0,3.371036053E0,-2.700659513E0
1.509038177E1,-9.730035782E0,2.378878784E1,8.418013573E0
1.511039062E1,-9.452308655E0,2.845269394E1,4.912901878E0
1.513059635E1,-6.253654957E0,1.504516315E1,-1.350329757E0
1.515523958E1,-1.426944256E0,9.959878922E-1,-4.137180328E0
1.517526771E1,-4.568136692E0,-2.011129379E0,1.071644688E1
1.520037760E1,6.588842869E0,1.446097851E1,-1.234450436E1
1.522056302E1,-1.474828243E0,1.855985069E1,-7.977479935E0
1.524521771E1,-6.177040577E0,2.284068489E1,5.152322292E0
1.526527656E1,-6.684611320E0,2.420059013E1,8.820239067E0
1.529038333E1,2.212242365E0,1.267969227E1,8.398859978E0
1.531526406E1,1.819593310E0,1.553358078E1,3.246537447E0
1.533551875E1,-7.086837292E-1,1.114740276E1,1.359906554E0
1.536035000E1,-3.303998232E0,3.945644379E0,2.633621931E0
1.538036875E1,-2.949656487E0,5.985504150E0,4.271255970E0
1.540521666E1,3.706224203E0,3.246537447E0,3.246537447E0
1.542527448E1,5.238513470E0,2.844311714E0,-1.915361285E-1
1.544672187E1,2.614468336E0,4.836287498E0,1.197100878E0
1.547043489E1,-1.197100878E0,3.179499865E0,1.082179189E0
1.549046094E1,-5.602431774E0,3.351882398E-1,-2.173935175E0
1.551526666E1,-3.773261786E0,-1.685518026E0,-5.477933407E0
1.553551719E1,-2.489969730E-1,5.094861031E0,6.224924326E-1
1.556037708E1,-2.748543501E0,3.968628693E1,-3.217807055E0
1.558070156E1,-9.375694275E0,2.658521652E1,1.896207690E0
1.560520833E1,-3.993528366E0,1.905784607E1,7.967903137E0
1.562521094E1,-4.539406300E0,1.961330032E1,5.870582581E0
1.565036510E1,8.140285611E-1,2.033156013E1,2.078166962E0
1.567036666E1,1.072602391E0,1.819593239E1,4.817133904E0
1.569064739E1,-9.576806426E-2,1.193270111E1,7.297526836E0
1.571527396E1,-2.920926094E0,6.521805286E0,5.544970989E0
1.573552396E1,-4.031835556E0,3.275267839E0,3.696647406E0
1.576038750E1,-1.503558636E0,-2.719813108E0,1.254561663E0
1.578526406E1,-1.905784607E0,-8.331821442E0,-8.044517636E-1
1.581041146E1,5.343858242E0,-1.410663605E1,-3.993528366E0
1.583578854E1,6.770802498E0,-3.256114244E0,-2.815581083E0
1.586037812E1,-1.369483352E0,1.154005241E1,8.906430602E-1
1.588521146E1,-1.106121159E1,4.225287247E1,8.714894295E0
1.590525989E1,-8.312667847E0,3.357628632E1,-2.442085743E0
1.593035469E1,-5.554547906E-1,-1.592622948E1,6.320692301E-1
1.595634531E1,-1.963245392E0,-1.627099419E1,4.462791920E0
1.598037656E1,7.153874874E0,6.540958881E0,-1.418325043E1
1.600521302E1,-4.654327869E0,5.411853409E1,-1.236365795E1
1.602526718E1,-1.142513084E1,3.663128662E1,4.319139957E0
1.605039739E1,-4.788403511E-1,7.508216381E0,1.216254425E1
1.607519687E1,2.499546528E0,1.375229454E1,2.796427488E0
1.610039687E1,-2.327163935E0,1.541865921E1,9.576807022E-1
1.612040573E1,-2.911349297E0,4.951209068E0,6.263231754E0
1.614530000E1,-1.829170108E0,5.525817394E0,2.959233284E0
1.617037031E1,5.315127850E0,3.936067581E0,3.620033026E0
1.619040520E1,7.086836815E0,5.995080948E0,-1.120486379E0
1.621526250E1,3.725377798E0,6.320692539E0,-5.937620401E-1
1.623580416E1,-4.309563041E-1,2.030282974E0,1.982398987E0
1.626039896E1,-7.623138428E0,-4.884171486E-1,3.926490843E-1
1.628521510E1,-3.897760391E0,-1.742978811E0,-3.945644379E0
1.631040260E1,1.982398987E0,8.226476669E0,1.063025594E0
1.633588854E1,-2.451662540E0,4.453215027E1,-6.818686485E0
1.636036094E1,-2.671929121E0,1.596453667E1,8.916007042E0
1.638529896E1,-4.778826714E0,2.141374016E1,7.259219646E0
1.641055625E1,-3.380612850E0,2.120305061E1,2.020706177E0
1.644856146E1,4.213795066E-1,1.882800293E1,6.167463779E0
1.647039114E1,-1.666364431E0,1.096544361E1,7.182605267E0
1.649059531E1,-1.685518026E0,6.023811340E0,2.700659513E0
1.651528594E1,-1.532289028E0,7.278373241E-1,1.781286120E0
1.653554583E1,-2.145204782E0,-3.610456228E0,1.838746905E0
1.656056666E1,-2.547430515E0,-9.864110947E0,-9.959878922E-1
1.658520416E1,5.123591423E0,-1.319683933E1,-2.978386879E0
1.661038750E1,5.966350555E0,-2.221819162E0,-3.361459255E0
1.663551458E1,-2.145204782E0,1.041956615E1,5.458779931E-1
1.666034739E1,-8.197746277E0,3.309744263E1,1.252646351E1
1.668040156E1,-5.861005783E0,1.038125896E1,5.755661011E0
1.670061302E1,-6.512228847E-1,2.647987175E1,-6.263231754E0
1.672520208E1,-9.959878922E-1,-4.970362663E0,-5.573701382E0
1.674527135E1,-1.675941229E0,-3.610456228E0,2.298433632E-1
1.676527500E1,5.659893036E0,8.647856712E0,-5.726930618E0
1.679058802E1,-1.838746905E0,1.852154350E1,-1.110909581E0
1.681527916E1,-8.935160637E0,4.254975128E1,-4.395754337E0
1.683554843E1,7.278373241E-1,1.473870564E1,1.043871975E1
1.686035885E1,5.171475887E0,1.169328117E1,5.267243862E0
1.688037396E1,2.901772499E0,2.014960098E1,1.532289088E-1
1.690039791E1,-6.358999729E0,1.171243477E1,5.487510204E0
1.692056614E1,-3.830722809E0,3.476380825E0,5.544970989E0
1.694817812E1,-1.493981838E0,4.232948780E0,2.346317768E0
1.697037187E1,4.204218388E0,2.269703150E0,1.513135433E0
1.699040573E1,5.094861031E0,9.567230225E0,-2.873041928E-1
1.701527396E1,4.319139957E0,5.765237808E0,2.106897593E0
1.703593593E1,4.596867263E-1,1.819593310E-1,2.250549555E0
1.706036823E1,-9.586383820E0,-2.403778553E0,-4.424484730E0
1.708519583E1,-5.698200226E0,9.576807022E-1,-2.509123325E0
1.710528802E1,8.044517636E-1,8.944737434E0,4.261679173E0
1.713056927E1,-1.283292055E0,4.416823196E1,-8.379706383E0
1.715520833E1,-3.112462282E0,1.797566605E1,1.043871975E1
1.718060052E1,-3.409343243E0,2.155739212E1,5.995080948E0
1.720519896E1,-4.309563041E-1,2.399947739E1,3.936067581E0
1.722531458E1,3.495534420E0,2.160527611E1,1.599326730E0
1.724554375E1,7.374141216E-1,1.397256088E1,2.729389906E0
1.727040937E1,2.202665508E-1,8.169015884E0,3.552995205E0
1.729526198E1,-5.746083856E-1,-2.777273953E-1,2.920926094E0
1.731526510E1,-5.937620401E-1,-4.280832767E0,1.647210717E0
1.733579896E1,-3.351882458E0,-7.699752808E0,1.455674648E0
1.736038854E1,6.416460276E-1,-1.730529022E1,3.639186621E-1
1.738040729E1,3.916913986E0,-1.234450436E1,-3.390189648E0
1.740055833E1,4.558559895E0,-2.078166962E0,-4.979939461E0
1.742520312E1,-4.434061527E0,2.057098007E1,1.819593310E-1
1.744769635E1,-8.973467827E0,3.650678635E1,1.007480049E1
1.747038281E1,-5.832275391E0,5.315127850E0,3.859453201E0
1.749038385E1,-2.011129379E0,1.199973869E1,-8.054094315E0
1.751038958E1,1.944091797E0,-2.394201756E0,-5.861005783E0
1.753583593E1,5.228936672E0,1.180820274E1,2.154781580E0
1.756041250E1,4.175487995E0,1.510262394E1,-1.241154194E1
1.758058593E1,-1.819593310E0,1.642422295E1,-3.303998232E0
1.760520781E1,-5.640739441E0,2.925714493E1,1.790862918E0
1.763037656E1,-4.405331016E-1,1.636676216E1,9.155426979E0
1.765056406E1,2.087743998E0,1.403959846E1,4.893748283E0
1.767058177E1,-2.030282974E0,1.661575890E1,2.834734917E0
1.769522396E1,-5.544970989E0,7.038952827E0,6.387730122E0
1.771527448E1,-2.279279947E0,5.841852188E0,3.150769472E0
1.773586354E1,-3.160346150E-1,6.943184853E0,2.394201756E0
1.776039323E1,4.587290287E0,-1.082179189E0,2.710236311E0
1.778042187E1,7.297526836E0,3.916913986E0,1.369483352E0
1.780532864E1,4.845864296E0,5.114014626E0,2.882618904E0
1.783036927E1,-3.131615877E0,1.407790542E0,-8.427590132E-1
1.785037239E1,-7.747636795E0,1.120486379E0,-4.941632271E0
1.787519687E1,-1.991975784E0,3.849876404E0,-5.918466568E0
1.789521406E1,1.244984865E0,2.677675247E1,2.422932148E0
1.791529114E1,-9.911994934E0,3.026270866E1,-5.717353821E0
1.794848281E1,-2.882618904E0,2.251507187E1,9.806650162E0
1.797039375E1,-4.769249916E0,2.997540474E1,4.290409565E0
1.799041718E1,-1.197100878E0,2.655648613E1,4.213795066E-1
1.801064739E1,3.045424461E0,2.225649834E1,1.589749932E0
1.803582552E1,1.838746905E0,1.108994198E1,3.782838583E0
1.806037500E1,4.884171486E-1,3.102885485E0,2.422932148E0
1.808060989E1,-4.596867263E-1,-9.768342972E-1,2.212242365E0
1.810519896E1,-2.758120298E0,-5.928043365E0,1.235408068E0
1.813040625E1,-3.974374771E0,-1.293826580E1,-1.197100878E0
1.815518906E1,5.908889771E0,-1.313937855E1,-4.472368717E0
1.817522968E1,4.750096321E0,-4.386177540E0,-4.414907932E0
1.820057812E1,-3.198653460E0,5.133168221E0,-3.907337189E0
1.822520937E1,-1.239238834E1,3.666001511E1,1.131978607E1
1.824521146E1,-8.944737434E0,1.590707588E1,1.020887566E1
1.826525468E1,-3.658340216E0,3.362416840E1,2.250549555E0
1.828529062E1,5.755661011E0,-8.140285611E-1,-1.068771648E1
1.831038229E1,1.283292055E0,-9.864110947E0,-3.476380825E0
1.833063229E1,9.107542992E0,-7.565677166E-1,-8.034940720E0
1.835519479E1,1.781286120E0,8.686163902E0,-8.906430602E-1
1.838035625E1,-1.728613663E1,5.839936829E1,-1.205719948E1
1.840039062E1,-6.224924326E-1,1.661575890E1,1.369483376E1
1.842527552E1,6.368576527E0,9.624691010E0,7.316680431E0
1.844744010E1,1.628057122E0,1.783201408E1,-1.053448796E0
1.847033177E1,-8.657433510E0,8.111555099E0,5.554547787E0
1.849034375E1,-4.721365929E0,2.298433542E0,3.294421434E0
1.851530468E1,-1.273715258E0,5.726930618E0,2.566584110E0
1.854039479E1,4.529829502E0,5.152322292E0,5.650315881E-1
1.856530885E1,6.856993675E0,8.599972725E0,2.758120298E0
1.859035104E1,2.499546528E0,3.035847664E0,4.778826714E0
1.861530989E1,-6.971915245E0,-1.063025594E0,-2.240972757E0
1.864060364E1,-6.033388138E0,2.298433632E-1,-6.904877663E0
1.866530208E1,1.877054095E0,1.060152531E1,1.340752959E0
1.869033854E1,-5.497087002E0,4.231033325E1,-8.389283180E0
1.871038385E1,-7.096413612E0,1.783201408E1,8.791508675E0
1.873523698E1,-7.105990410E0,2.452620316E1,6.655880928E0
1.876033854E1,-2.346317768E0,2.367386627E1,2.288856745E0
1.878036718E1,7.134721279E0,2.333867836E1,-4.596867263E-1
1.880053437E1,5.592854977E0,1.767878532E1,1.158793569E0
1.882524114E1,3.141192675E0,8.561665535E0,2.432508945E0
1.885037291E1,0.000000000E0,1.513135433E0,2.087743998E0
1.887058125E1,-5.458779931E-1,-1.331176162E0,2.317587137E0
1.889522187E1,-3.294421434E0,-5.487510204E0,1.666364431E0
1.891530260E1,-4.730942726E0,-1.163582039E1,-1.177947283E0
1.894663906E1,3.955221176E0,-1.097502041E1,-4.462791920E0
1.897035208E1,2.806004286E0,-6.703764796E-1,-5.717353821E0
1.899042291E1,-4.510675907E0,1.287122822E1,2.097320795E0
1.901525677E1,-1.001733971E1,3.216849518E1,1.573469353E1
1.903574739E1,-4.625597477E0,1.057279491E1,2.834734917E0
1.906058750E1,-3.734954596E-1,6.732495308E0,-3.131615877E0
1.908517291E1,-3.026270866E0,2.097320795E0,-8.619125932E-2
1.910521823E1,-1.005564690E0,1.139640045E1,-3.265691042E0
1.913039843E1,-7.776367188E0,2.564668846E1,-6.665457726E0
1.915060468E1,-3.983951569E0,1.765005493E1,4.462791920E0
1.917518385E1,1.283292055E0,2.508165741E1,2.403778553E0
1.919529323E1,2.470816135E0,1.927811241E1,7.010222435E0
1.922037083E1,4.683058739E0,1.621353340E1,4.759673119E0
1.924039010E1,-1.513135433E0,1.071644688E1,1.752555609E0
1.926526198E1,-4.367023945E0,6.799532890E0,2.537853718E0
1.929038854E1,5.746084079E-2,6.110002518E0,5.535394192E0
1.931523333E1,5.075707436E0,4.740519524E0,1.264138460E0
1.933583750E1,4.683058739E0,8.216899872E0,-1.953668594E0
1.936041041E1,3.897760391E0,6.627150536E0,4.683058739E0
1.938526250E1,3.351882398E-1,9.193734527E-1,1.877054095E0
1.941039948E1,-9.232041359E0,-1.331176162E0,-4.893748283E0
1.944750573E1,-2.499546528E0,6.971915245E0,-3.409343243E0
1.947037812E1,-6.042964935E0,3.637271118E1,-4.194641590E0
1.949038906E1,-4.319139957E0,1.842577553E1,7.594407558E0
1.951523698E1,-3.552995205E0,2.872084427E1,8.398859978E0
1.953580989E1,-2.135627985E0,3.148854065E1,2.920926094E0
1.956039531E1,6.732495308E0,2.351106071E1,2.489969730E0
1.958058229E1,7.383718014E0,1.574427032E1,2.068590164E0
1.960525781E1,3.418920040E0,5.765237808E0,3.208230257E0
1.962530416E1,6.033388376E-1,2.968810201E-1,2.327163935E0
1.965036041E1,-1.149216771E0,-3.179499865E0,2.097320795E0
1.967038593E1,-4.242525578E0,-4.865017891E0,2.968810201E-1
1.969041510E1,-6.550535679E0,-1.008437729E1,-2.662352324E0
1.971525156E1,3.045424461E0,-1.580173111E1,-2.796427488E0
1.973574218E1,4.338293552E0,-7.153874874E0,-4.855441093E0
1.976061562E1,8.906430602E-1,7.278373241E0,-8.236053586E-1
1.978516093E1,-1.091755962E1,4.024174118E1,1.579215431E1
1.980523177E1,-1.168370438E1,1.902911568E1,8.523358345E0
1.983040156E1,4.625597477E0,3.213018799E1,-1.523670006E1
1.985518906E1,-4.309563160E0,-1.589749908E1,1.762132406E0
1.988035885E1,1.021845245E1,-4.070142746E0,-4.884171486E-1
1.990037812E1,3.715801001E0,4.434061527E0,-9.605537415E0
1.992516302E1,-9.864110947E0,5.915593719E1,-1.427901936E1
1.994823125E1,-2.748543501E0,2.859634590E1,1.152089882E1
1.997041823E1,4.367023945E0,1.039083576E1,8.753201485E0
1.999058541E1,5.631162167E0,1.520796967E1,2.164358377E0
2.001060156E1,-1.704671621E0,1.580173111E1,-6.607996821E-1
2.003576250E1,-5.497087002E0,2.509123325E0,7.422025204E0
2.006037552E1,-2.336740971E0,3.189076662E0,2.020706177E0
2.008518125E1,3.706224203E0,3.763684988E0,6.607996821E-1
2.010523437E1,2.365471363E0,8.580819130E0,-4.788403213E-2
2.013035989E1,4.501099110E0,9.787496567E0,3.964797974E0
2.015516354E1,5.363011956E-1,-2.011129409E-1,1.771709204E0
2.017519323E1,-5.583278179E0,-3.074155092E0,-3.150769472E0
2.020036927E1,-8.858546257E0,-2.154781580E0,-5.238513470E0
2.022038229E1,-1.034295082E0,1.628057122E0,1.244984865E-1
2.024058020E1,4.826710701E0,1.566765594E1,6.368576527E0
2.026522656E1,-1.972822189E0,4.952166748E1,-1.269884586E1
2.029040625E1,-5.726930618E0,1.634760857E1,1.181777954E1
2.031525625E1,-2.432508945E0,2.540726852E1,5.267243862E0
2.033586302E1,2.049436569E0,2.360682869E1,2.873041928E-1
2.036056562E1,4.414907932E0,2.036029053E1,9.002198577E-1
2.038516614E1,2.796427488E0,1.104205799E1,2.183511972E0
2.040519270E1,-9.768342972E-1,6.205770969E0,3.639186621E0
2.043037812E1,-2.164358377E0,2.873041928E-1,1.762132406E0
2.045060468E1,-6.895300746E-1,-2.585737944E0,1.264138460E0
2.047520573E1,-4.194641590E0,-8.801085472E0,-1.283292055E0
2.050058593E1,2.451662540E0,-1.849281311E1,-3.600879431E0
2.052519948E1,3.888183594E0,-7.077260017E0,-7.067683220E0
2.054548646E1,1.187524080E0,6.004657745E0,-5.592854977E0
2.057058802E1,-1.224873543E1,3.971501923E1,1.322556973E1
2.059522552E1,-8.475474358E0,1.014183807E1,1.063983250E1
2.061527812E1,-2.959233284E0,1.275630665E1,1.197100878E0
2.063583646E1,3.189076662E0,1.120486355E1,-1.629972458E1
2.066035156E1,2.049436569E0,4.596867263E-1,1.197100878E0
2.068037083E1,1.202846909E1,5.928043365E0,2.834734917E0
2.070066198E1,3.620033026E0,1.934514999E0,-5.573701382E0
2.072519843E1,-2.767697096E0,3.195780373E1,7.307103634E0
2.074536146E1,-6.244078159E0,4.255932999E1,-4.548983097E0
2.077035729E1,4.625597477E0,1.091755962E1,3.658340216E0
2.079039271E1,5.544970989E0,1.332133865E1,3.744531393E0
2.081526770E1,-5.420472622E0,1.735317421E1,4.979939461E-1
2.083581198E1,-1.282334423E1,8.398859978E0,6.291962147E0
2.086034896E1,-5.305551052E0,8.848969460E0,3.754108191E0
2.088042500E1,4.702212334E0,3.849876404E0,2.068590164E0
2.090056823E1,9.519346237E0,-2.968810201E-1,-2.537853718E0
2.092520468E1,3.744531393E0,4.204218388E0,6.196194172E0
2.094849010E1,-5.937620401E-1,2.758120298E0,4.386177540E0
2.097036406E1,-4.644751072E0,1.177947283E0,-2.595314741E0
2.099039896E1,-7.192182064E0,1.819593310E-1,-6.828263283E0
2.101527656E1,1.321599364E0,-1.015141487E0,0.000000000E0
2.103585104E1,4.616020679E0,1.182735634E1,4.223371983E0
2.106035468E1,-5.171475887E0,5.544013596E1,-8.695740700E0
2.108071406E1,-8.006210327E0,1.541865921E1,6.110002518E0
2.110530989E1,-3.390189648E0,2.017833138E1,7.259219646E0
2.113059896E1,9.385270476E-1,2.072421074E1,2.576161146E0
2.115522239E1,5.295974255E0,1.667322159E1,9.289502501E-1
2.117691250E1,2.643198729E0,1.215296745E1,2.183511972E0
2.120037552E1,-5.554547906E-1,7.335834026E0,3.313575268E0
2.122058802E1,-1.666364431E0,2.442085743E0,2.863465309E0
2.124520937E1,1.819593310E-1,-2.901772499E0,6.416460276E-1
2.126527500E1,-1.781286120E0,-6.263231754E0,-2.873042040E-2
2.129038177E1,-3.160346150E-1,-1.471955204E1,-4.501099288E-1
2.131057239E1,4.424484730E0,-6.837840080E0,-4.405331135E0
2.133550468E1,4.587290287E0,3.083731890E0,-1.513135433E0
2.136037916E1,-6.655880928E0,3.431369781E1,8.034940720E0
2.138522916E1,-1.538992882E1,2.817496490E1,8.121131897E0
2.141040729E1,1.398213744E0,6.004657745E0,-2.268745613E1
2.144747708E1,-2.873042107E0,-1.979525948E1,2.288856745E0
2.147040052E1,9.471462250E0,-1.819593310E-1,-1.188481712E1
2.149520885E1,2.375048161E0,6.607038879E1,-5.535394192E0
2.151526406E1,-2.097320795E0,4.014597321E1,3.198653460E0
2.153551875E1,-2.279279947E0,5.822698593E0,1.045787334E1
2.156042604E1,2.183511972E0,8.312667847E0,5.439626217E0
2.158521927E1,1.953668594E0,2.455493355E1,-6.598419666E0
2.161037656E1,-7.958326340E0,9.940725327E0,5.544970989E0
2.163554687E1,-4.367023945E0,6.177040577E0,4.012681961E0
2.166036614E1,2.470816135E0,1.321599364E0,3.256114244E0
2.168520416E1,6.062118530E0,3.409343243E0,2.576161146E0
2.171035833E1,8.532935143E0,6.540958881E0,2.997540474E0
2.173036406E1,5.449203014E0,1.628057122E0,3.150769472E0
2.175037083E1,-2.145204782E0,1.723825186E-1,-4.328716755E0
2.177063906E1,-9.892841339E0,5.554547906E-1,-4.797980309E0
2.179519635E1,-4.865017891E0,3.830722719E-2,7.757213712E-1
2.181527239E1,1.608903527E0,4.702212334E0,3.351882398E-1
2.183556406E1,7.910442352E0,4.461834335E1,6.761225700E0
2.186043698E1,-1.285207462E1,2.330037117E1,-7.354987621E0
2.188521250E1,-5.516240597E0,1.961330032E1,1.061110210E1
2.190525989E1,-1.570596337E0,2.439212608E1,2.911349297E0
2.193058906E1,6.090848923E0,2.149035454E1,-1.292868972E0
2.195681354E1,6.483498096E0,1.778413010E1,6.895300746E-1
2.198037760E1,7.565677166E-1,9.375694275E0,3.552995205E0
2.200075312E1,-1.810016513E0,2.892195702E0,2.738966703E0
2.202524218E1,-1.005564690E0,-1.474828243E0,1.800439715E0
2.204533177E1,-2.844311714E0,-5.200206280E0,2.470816135E0
2.207040520E1,-3.055001259E0,-1.443224812E1,2.968810201E-1
2.209041927E1,3.265691042E0,-1.376187134E1,-5.142745018E0
2.211524479E1,3.955221176E0,-1.541865945E0,-4.807557106E0
2.213578385E1,-7.086837292E-1,1.691264153E1,1.493981838E0
2.216039166E1,-1.114740276E1,3.176626778E1,1.388636971E1
2.218228489E1,-3.179499865E0,4.156333923E0,5.248090267E0
2.220526666E1,-1.216254473E0,1.637633920E0,-1.335964584E1
2.223037291E1,-3.074155092E0,2.366428947E1,-2.873042040E-2
2.225518541E1,6.521805286E0,8.791508675E0,-1.771709204E0
2.228039739E1,-2.557007313E0,4.529829502E0,-5.861005783E0
2.230042395E1,-2.145204782E0,4.721365929E0,2.738966703E0
2.232517083E1,-3.763684988E0,4.533660507E1,-3.169923067E0
2.234525260E1,5.114014626E0,2.191173363E1,6.665457726E0
2.236526718E1,5.717353821E0,1.328303146E1,4.146757126E0
2.238530781E1,9.864110947E-1,1.218169785E1,1.886630893E0
2.241035468E1,-5.592854977E0,7.393294811E0,5.046977043E0
2.243038125E1,-2.978386879E0,5.267243862E0,7.383718014E0
2.245628854E1,3.600879431E0,2.537853718E0,2.135627985E0
2.248037343E1,3.418920040E0,2.978386879E0,-4.223371983E0
2.250527395E1,1.110909581E0,7.728483200E0,6.378153324E0
2.253044427E1,1.034295082E0,4.338293552E0,4.769249916E0
2.255520104E1,-5.717353821E0,-4.405331016E-1,-3.974374771E0
2.258040208E1,-4.376600742E0,-1.340752989E-1,-4.616020679E0
2.260040520E1,1.139639974E0,8.255207062E0,6.416460276E-1
2.262049948E1,6.761225700E0,4.499183655E1,-4.146757126E0
2.264058437E1,-6.818686485E0,2.189258003E1,-9.078812599E0
2.266058698E1,-1.436520964E-1,1.458547688E1,8.724471092E0
2.268518489E1,-3.169923067E0,2.382709503E1,4.644751072E0
2.270520677E1,-2.384624958E0,2.304179764E1,1.407790542E0
2.272520781E1,3.380612850E0,2.172019768E1,2.183511972E0
2.274529427E1,1.551442742E0,1.583046150E1,4.999093056E0
2.277201770E1,3.830722719E-2,9.433155060E0,4.893748283E0
2.279531510E1,-5.746083856E-1,2.317587137E0,2.777273953E-1
2.282038437E1,-5.746083856E-1,-2.413355350E0,-1.608903527E0
2.284043437E1,-4.625597477E0,-6.914454460E0,-7.948749661E-1
2.286528750E1,1.915361360E-2,-2.066674995E1,-4.213795066E-1
2.289057031E1,3.667917013E0,-6.416460514E0,-7.460332394E0
2.291064375E1,4.185064793E0,4.395754337E0,-5.468356609E0
2.294803281E1,-1.078348446E1,3.915956116E1,1.322556973E1
2.297035833E1,-4.855441093E0,7.240066051E0,8.599972725E0
2.299038854E1,7.374141216E-1,1.990060425E1,-9.538499832E0
2.301528645E1,-5.257667065E0,-5.736507416E0,-4.127603531E0
2.303582552E1,6.148310184E0,5.458779931E-1,-3.447650433E0
2.306038958E1,5.449203014E0,1.086009884E1,-1.069729328E1
2.308066093E1,-3.639186621E-1,3.063620567E1,-5.295974255E0
2.310534479E1,-5.679046631E0,2.602018356E1,6.598419666E0
2.313057343E1,2.566584110E0,1.208592987E1,7.163451672E0
2.315520833E1,4.472368717E0,1.771709251E1,2.681505978E-1
2.318036770E1,-2.585737944E0,1.347456741E1,6.349422932E0
2.320055572E1,-1.819593310E0,5.803544998E0,3.083731890E0
2.322525364E1,4.692635238E-1,5.784391403E0,8.810662031E-1
2.325035781E1,4.951209068E0,2.087743998E0,5.631162167E0
2.327044843E1,7.144298077E0,7.086836815E0,6.607996464E0
2.329527187E1,7.259219646E0,6.464344501E0,1.963245392E0
2.331527343E1,-1.101332784E0,1.570596337E0,-5.075707436E-1
2.333587916E1,-8.312667847E0,2.317587137E0,-1.675941229E0
2.336037864E1,-8.657433510E0,1.944091797E0,-5.746084079E-2
2.338060104E1,-1.177947283E0,3.179499865E0,8.906430602E-1
2.340521302E1,7.623138428E0,2.464112473E1,3.265691042E0
2.343035937E1,-4.031835556E0,3.240791321E1,-1.349372101E1
2.345554583E1,-3.227383852E0,1.745851898E1,8.925583839E0
2.348035833E1,-3.572149038E0,2.611595154E1,4.079719543E0
2.350037968E1,-5.458779931E-1,2.199792480E1,7.565677166E-1
2.352058645E1,3.122039080E0,1.972822189E1,1.340752959E0
2.354529114E1,2.135627985E0,1.393425369E1,3.380612850E0
2.356533281E1,9.864110947E-1,8.791508675E0,3.227383852E0
2.359037916E1,-1.197100878E0,1.924938202E0,5.937620401E-1
2.361039948E1,-6.607996821E-1,-2.537853718E0,-2.585737705E-1
2.363057291E1,-3.591302633E0,-7.766790390E0,4.788403213E-2
2.365522500E1,-1.819593310E0,-2.148077774E1,1.244984865E-1
2.368039583E1,4.290409565E0,-9.165003777E0,-8.207323074E0
2.370525468E1,1.752555609E0,6.282385349E0,-2.633621931E0
2.373035052E1,-8.054094315E0,3.534799576E1,1.308191776E1
2.375040625E1,-9.318233490E0,2.166273689E1,1.154005241E1
2.377521093E1,-3.869029999E0,3.183330536E1,2.786850691E0
2.380062135E1,3.811569214E0,-1.110909581E0,-1.275630665E1
2.382527239E1,4.213795066E-1,-1.154962921E1,-1.991975784E0
2.384535156E1,9.270348549E0,-2.777273893E0,-4.357447147E0
2.387059270E1,3.869029999E0,1.502600956E1,3.869029999E0
2.389532239E1,-1.591665268E1,6.243120193E1,-5.181052685E0
2.392038125E1,2.394201756E0,5.679046631E0,7.259219646E0
2.394946666E1,6.895300865E0,1.108994198E1,1.944091797E0
2.397037343E1,-7.086837292E-1,1.748724937E1,2.853888512E0
2.399037448E1,-6.157886982E0,1.051533413E1,8.667010307E0
2.401523281E1,-2.863465309E0,7.852981567E0,1.426944256E0
2.403588645E1,2.059013367E0,3.246537447E0,9.576807022E-1
2.406036979E1,4.721365929E0,1.474828243E0,2.298433542E0
2.408518906E1,4.836287498E0,4.022258759E0,5.181052685E0
2.410524166E1,3.715801001E0,3.035847664E0,4.491522312E0
2.413038177E1,2.777273953E-1,4.472368717E0,5.363011956E-1
2.415516458E1,-6.521805286E0,2.384624958E0,-6.272808552E0
2.417520937E1,-3.792415380E0,2.806004286E0,-6.320692539E0
2.419528281E1,1.867477298E0,1.453759289E1,1.991975784E0
2.422039843E1,-4.299986362E0,3.866156769E1,-9.768342972E0
2.424519791E1,-2.786850691E0,1.582088470E1,1.234450436E1
2.426522448E1,-2.959233284E0,2.553176689E1,4.520252705E0
2.429040677E1,-1.819593310E-1,2.450704765E1,1.915361404E0
2.431042031E1,5.487510204E0,2.200750160E1,8.044517636E-1
2.433583333E1,3.371036053E0,1.431732655E1,2.106897593E0
2.436039583E1,9.002198577E-1,8.485051155E0,2.193088770E0
2.438517083E1,-8.619126081E-1,1.982398987E0,8.331822157E-1
2.440517343E1,-4.788403213E-2,-2.097320795E0,5.075707436E-1
2.442524948E1,-2.844311714E0,-6.129156113E0,-9.576806799E-3
2.444720677E1,-4.903325081E0,-1.614649582E1,-4.405331016E-1
2.447035989E1,5.679046631E0,-1.343626022E1,-6.368576527E0
2.449061458E1,4.759673119E0,-1.838746905E0,-3.351882458E0
2.451527812E1,2.873042040E-2,1.683602715E1,7.603984833E0
2.453557864E1,-6.464344501E0,3.650678635E1,1.880884933E1
2.456038229E1,-5.573701382E0,1.479616642E1,8.532935143E0
2.458065677E1,1.130063176E0,2.919010735E1,-2.503377342E1
2.460519166E1,-4.079719543E0,-7.460332394E0,-1.197100878E0
2.462522552E1,1.273715258E0,-7.211335659E0,1.139639974E0
2.465058177E1,8.216899872E0,1.254561663E0,-1.059194851E1
2.467520677E1,-2.873042040E-2,4.439807510E1,-8.236053586E-1
2.470056875E1,1.762132406E0,3.286759949E1,1.053448772E1
2.472520104E1,2.844311714E0,3.974374771E0,6.023811340E0
2.474529166E1,5.918466568E0,9.260771751E0,1.675941229E0
2.477054895E1,1.714248419E0,2.113601303E1,-1.216254473E0
2.479522448E1,-6.856993675E0,1.075475407E1,8.475474358E0
2.481527864E1,-3.533841610E0,6.713341713E0,3.869029999E0
2.483580729E1,7.661445439E-2,2.643198729E0,3.610456228E0
2.486036875E1,3.409343243E0,-6.703764945E-2,2.375048161E0
2.488037291E1,5.947196960E0,1.216254473E0,2.509123325E0
2.490527187E1,5.832275391E0,3.514688015E0,2.968810081E0
2.493037031E1,1.321599364E0,4.367023945E0,2.442085743E0
2.495180572E1,-5.430049419E0,3.763684988E0,-4.070142746E0
2.497520416E1,-5.746084213E0,6.895300746E-1,-5.286397457E0
2.499522031E1,3.256114423E-1,4.596867085E0,-1.024718285E0
2.501538333E1,6.675034523E0,4.907155991E1,-4.788403213E-2
2.503578333E1,-8.628703117E0,2.553176689E1,-1.077390766E1
2.506036875E1,-2.499546528E0,1.956541634E1,9.787496567E0
2.508037812E1,-3.964797974E0,2.507208061E1,2.614468336E0
2.510058072E1,1.991975784E0,2.115516663E1,2.585737705E-1
2.512520989E1,7.948749542E0,2.046563530E1,-5.075707436E-1
2.514529895E1,2.576161146E0,1.558146477E1,4.213795066E-1
2.517035208E1,-1.072602391E0,8.619126320E0,1.742978811E0
2.519039270E1,-1.685518026E0,2.825158119E0,2.011129379E0
2.521527812E1,-2.422932148E0,-4.213795185E0,3.160346270E0
2.523589270E1,-3.390189648E0,-9.873687744E0,2.202665567E0
2.526036302E1,2.518700123E0,-1.878011894E1,-2.336740971E0
2.528074323E1,5.181052685E0,-1.007480049E1,-4.893748283E0
2.530521927E1,2.030282974E0,1.465251446E0,-1.139639974E0
2.533038645E1,-3.600879431E0,2.946783447E1,9.375694275E0
2.535520989E1,-5.276820660E0,1.678814316E1,7.326257229E0
2.538037031E1,-7.374141216E-1,6.952761650E0,1.235408068E0
2.540062604E1,-5.066130638E0,1.450886250E1,-1.427901936E1
2.542519375E1,-3.351882398E-1,9.222464561E0,8.714894056E-1
2.544768489E1,6.943184853E0,1.016099167E1,5.937620401E-1
2.547040052E1,1.321599364E0,1.181777954E1,-1.110909557E1
2.549061198E1,-7.048529625E0,2.509123421E1,-1.091755986E0
2.551528072E1,-2.959233284E0,2.746628189E1,3.687070608E0
2.553548125E1,2.547430515E0,1.664448929E1,4.865017891E0
2.556060000E1,7.422025204E0,1.573469353E1,2.834734917E0
2.558527187E1,-3.256114423E-1,1.414494324E1,3.562572241E0
2.561058385E1,-3.409343243E0,9.404424667E0,6.406883717E0
2.563553698E1,-6.320692301E-1,6.110002518E0,5.181052685E0
2.566036041E1,2.863465309E0,2.518700123E0,3.485957623E0
2.568036041E1,5.334281445E0,6.703764796E-1,1.944091797E0
2.570519427E1,7.575253963E0,4.453215122E0,3.687070608E0
2.572521302E1,3.754108191E0,4.098873138E0,2.997540474E0
2.574529739E1,-1.015141487E0,3.524264812E0,1.541865945E0
2.577288802E1,-8.858546257E0,1.934514999E0,-4.089296341E0
2.579519687E1,-4.328716755E0,5.171475410E-1,-4.644751072E0
2.581526302E1,2.911349297E0,8.054094315E0,1.158793569E0
2.583551041E1,9.394847870E0,5.598601151E1,-3.217807055E0
2.586036666E1,-8.015787125E0,1.846408272E1,-3.447650373E-1
2.588041666E1,-2.068590164E0,2.291729927E1,7.651868820E0
2.590519375E1,-4.108449936E0,2.199792480E1,3.552995205E0
2.592530729E1,5.066130638E0,1.920149803E1,2.738966703E0
2.594823541E1,9.069235802E0,1.716163826E1,2.576161146E0
2.597037135E1,3.524264812E0,1.050575733E1,6.033388376E-1
2.599041979E1,-6.512228847E-1,5.717353821E0,-3.064578176E-1
2.601055989E1,-8.140285611E-1,1.723825216E0,-1.359906554E0
2.603557239E1,-2.279279947E0,-4.175487995E0,8.140285611E-1
2.606039791E1,-5.075707436E0,-1.606030464E1,2.087743998E0
2.608521041E1,1.551442742E0,-1.277546024E1,-4.539406300E0
2.610526562E1,2.748543501E0,-1.953668594E0,-3.888183594E0
2.613038593E1,-8.906430602E-1,1.206677628E1,7.182605267E-1
2.615519114E1,-1.032379818E1,3.114377594E1,1.289995861E1
2.617522552E1,-2.700659513E0,1.026633644E1,1.087925243E1
2.620061250E1,5.726930618E0,8.829815865E0,-1.788947487E1
2.622527448E1,-2.154781580E0,1.244984865E-1,-1.197100878E0
2.624532708E1,4.376600742E0,1.145386124E1,-2.518700123E0
2.627039583E1,2.422932148E0,2.092532349E1,-7.843404770E0
2.629040781E1,-3.342305660E0,2.097320747E1,-2.595314741E0
2.631057552E1,6.512228847E-1,2.122220421E1,2.422932148E0
2.633586302E1,8.714894056E-1,1.925895882E1,4.692635536E0
2.636035729E1,3.888183594E0,1.779370689E1,3.734954596E0
2.638037604E1,2.078166962E0,1.651999092E1,3.897760391E0
2.640039062E1,-3.122039080E0,1.137724686E1,3.993528366E0
2.642057448E1,-2.815581083E0,9.662998199E0,5.334281445E0
2.644725520E1,2.059013367E0,4.606443882E0,5.276820660E0
2.647040625E1,4.443638325E0,1.877054095E0,2.518700123E0
2.649522656E1,4.491522312E0,3.859453201E0,2.796427488E0
2.651526979E1,5.889736176E0,5.104437828E0,3.725377798E0
2.653583750E1,1.302445769E0,5.286397457E0,1.235408068E0
2.656059166E1,-9.662998199E0,3.639186621E-1,-3.811569214E0
2.658523593E1,-5.161899090E0,7.661445439E-2,-1.110909581E0
2.661036770E1,2.786850691E0,1.659660530E1,5.094861031E0
2.663055260E1,5.315127850E0,4.654328156E1,-6.761225700E0
2.665518593E1,-2.212242365E0,1.669237518E1,8.657433510E0
2.668056823E1,-2.489969730E0,2.500504303E1,4.817133904E0
2.670525572E1,3.514688015E0,2.263957214E1,2.738966703E0
2.673036666E1,5.707777023E0,1.824381638E1,3.773261786E0
2.675517760E1,2.825158119E0,1.175074196E1,1.953668594E0
2.677656250E1,-9.193734527E-1,7.498639584E0,2.834734917E0
2.680035729E1,-1.685518026E0,1.695094824E0,1.589749932E0
2.682036770E1,-2.097320795E0,-2.451662540E0,1.608903527E0
2.684038698E1,-4.357447147E0,-7.201758862E0,3.256114423E-1
2.686043854E1,-2.671929121E0,-1.673068237E1,-5.650315881E-1
2.688062500E1,3.936067581E0,-1.300530338E1,-4.979939461E0
2.690519218E1,3.390189648E0,-1.436520964E-1,-2.509123325E0
2.693039635E1,-1.235408068E0,2.792596817E1,5.908889771E0
2.695154166E1,-6.981492043E0,3.162261581E1,1.372356415E1
2.697525468E1,-1.149216816E-1,2.197877121E1,4.434061527E0
2.699527604E1,3.801992416E0,3.916913986E0,-1.914403725E1
2.702037135E1,-3.505111217E0,-1.359906578E1,-6.856993675E0
2.704042135E1,6.876147270E0,-2.853888512E0,-5.765237808E0
2.706526510E1,2.346317768E0,1.989102745E1,-2.221819162E0
2.709039791E1,-1.702756310E1,5.100607300E1,-5.209783077E0
2.711058073E1,2.873042040E-2,1.252646351E1,9.586383820E0
2.713583541E1,6.560112476E0,1.180820274E1,1.177947283E0
2.716058645E1,5.085284233E0,2.139458656E1,-2.250549555E0
2.718535156E1,-4.692635536E0,8.418013573E0,8.599972725E0
2.721036979E1,-2.336740971E0,7.623138428E0,4.309563160E0
2.723039010E1,2.078166962E0,3.907337189E0,3.552995205E0
2.725516145E1,6.713341713E0,2.671929121E0,2.700659513E0
2.727520260E1,8.456320763E0,7.230489254E0,2.738966703E0
2.729525729E1,7.920019150E0,5.975927353E0,2.978386879E0
2.732062656E1,-1.580173135E0,2.557007313E0,1.493981838E0
2.734526770E1,-1.224873543E1,1.139639974E0,-2.796427488E0
2.736534270E1,-9.299078941E0,1.321599364E0,-5.152322292E0
2.739062031E1,1.024718285E0,1.092713642E1,1.225831270E0
2.741524739E1,6.607996821E-1,3.772304153E1,-8.303091049E0
2.744748906E1,-1.465251446E0,2.235226631E1,1.096544361E1
2.747037031E1,-5.267243981E-1,3.043509293E1,1.072602391E0
2.749037760E1,4.491522312E0,2.473689270E1,1.771709204E0
2.751055624E1,9.356540680E0,1.855027390E1,2.308010340E0
2.753587812E1,2.413355350E0,1.000776291E1,3.313575268E0
2.756034270E1,1.177947283E0,3.744531393E0,2.193088770E0
2.758036770E1,-5.075707436E-1,-5.937620401E-1,1.541865945E0
2.760039739E1,-1.599326730E0,-2.451662540E0,1.273715258E0
2.762519583E1,-5.487510204E0,-5.841852188E0,-1.589749932E0
2.764519895E1,-4.089296341E0,-1.311064816E1,-2.997540474E0
2.766530572E1,7.374141216E-1,-8.647856712E0,-4.395754337E0
2.769038541E1,1.618480325E0,2.164358377E0,-2.461239338E0
2.771056406E1,-1.819593310E0,1.375229454E1,4.702212334E0
2.773549062E1,-7.211335659E0,3.228341675E1,1.170285797E1
2.776035624E1,1.187524080E0,2.525403976E1,6.569689274E0
2.778037552E1,7.019799232E0,3.361459255E0,-1.862688828E1
2.780521145E1,-4.874594688E0,-1.582088470E1,-1.829170108E0
2.783036666E1,6.722918510E0,8.044517636E-1,-4.683058739E0
2.785520156E1,3.543418407E0,3.961925125E1,-2.097320795E0
2.788060572E1,2.968810081E0,3.247495270E1,5.908889771E0
2.790526354E1,3.572149038E0,8.657433510E0,6.291962147E0
2.793057968E1,7.326257229E0,1.769793892E1,2.873042107E0
2.795380572E1,-4.405331135E0,1.978568268E1,4.855441093E0
2.797522031E1,-4.185064793E0,7.268796444E0,3.284844637E0
2.799528437E1,-5.650315881E-1,6.454767704E0,3.026270866E0
2.802041354E1,4.434061527E0,2.710236311E0,1.589749932E0
2.804526927E1,1.493981838E0,4.817133904E0,4.893748283E0
2.806528437E1,1.742978811E0,6.837840080E0,6.876147270E0
2.809043593E1,2.949656487E0,9.672574997E-1,1.493981838E0
2.811528385E1,-4.223371983E0,-9.193734527E-1,-3.371036053E0
2.813553593E1,-4.108449936E0,7.757213712E-1,-1.455674648E0
2.816038177E1,-1.628057212E-1,2.997540474E0,-3.064578176E-1
2.818520208E1,6.071695328E0,1.892377090E1,3.754108191E0
2.820523541E1,5.793968201E0,4.968447495E1,-1.146343803E1
2.823062708E1,-5.995080948E0,1.516966152E1,5.085284233E0
2.825525989E1,-1.398213744E0,2.525403976E1,3.342305660E0
2.827527395E1,-1.589749932E0,2.372175026E1,1.273715258E0
2.830040208E1,2.681505919E0,1.974737549E1,4.146757126E0
2.832518906E1,8.714894056E-1,1.438436413E1,6.742072105E0
2.834527604E1,6.129156351E-1,8.896853447E0,3.045424461E0
2.837061822E1,3.160346150E-1,3.773261786E0,-4.118026793E-1
2.839522447E1,3.447650373E-1,-2.202665567E0,7.374141216E-1
2.841526406E1,-3.169923067E0,-6.473921299E0,-2.681505978E-1
2.844689062E1,1.350329757E0,-1.702756310E1,-3.189076662E0
2.847056927E1,4.874594688E0,-4.501099110E0,-4.654327869E0
2.849528697E1,2.154781580E0,6.636727333E0,-1.244984865E-1
2.852035260E1,-5.861005783E0,3.476380920E1,1.233492756E1
2.854039635E1,-9.452308655E0,1.868435097E1,9.203310966E0
2.856527343E1,1.216254473E0,8.034940720E0,-2.738966703E0
2.859038489E1,7.182605267E-1,-1.934514999E0,-7.249642849E0
2.861526406E1,3.620033026E0,4.118026733E0,-1.168370485E0
2.863581874E1,8.140285492E0,1.144428444E1,-7.326257229E0
2.866058958E1,-3.734954596E0,2.168189049E1,-1.982398987E0
2.868522968E1,-3.466804028E0,3.055001450E1,2.729389906E0
2.871064114E1,3.725377798E0,1.823423958E1,4.826710701E0
2.873590416E1,1.190397072E1,1.570596313E1,2.595314741E0
2.876038385E1,1.484405041E0,1.446097851E1,3.160346270E0
2.878060937E1,-6.071695328E0,7.584830761E0,6.090848923E0
2.880519739E1,-3.055001259E0,6.818686485E0,4.501099110E0
2.882522343E1,1.503558636E0,4.807557106E0,3.169923067E0
2.885037135E1,6.876147270E0,3.581725836E0,1.838746905E0
2.887037812E1,8.504204750E0,6.971915245E0,3.217807055E0
2.889519895E1,3.830722719E-2,3.371036053E0,2.202665508E-1
2.891538177E1,-6.301538944E0,-1.206677675E0,2.681505978E-1
2.894852239E1,-1.004607010E1,1.053448796E0,-2.681505919E0
2.897035624E1,7.852981687E-1,6.837840080E0,2.987963676E0
2.899044062E1,1.221042824E1,3.659297943E1,5.391742229E0
2.901057031E1,-3.734954596E0,3.530968857E1,-1.146343803E1
2.903057656E1,1.723825186E-1,1.825339317E1,1.044829655E1
2.905065885E1,-1.742978811E0,2.670013809E1,6.531382084E0
2.907521250E1,1.197100878E0,2.247676468E1,3.821146011E0
2.910057239E1,3.897760391E0,1.609861183E1,3.150769472E0
2.912522083E1,2.030282974E0,9.088389397E0,2.116474390E0
2.914526093E1,-6.799532771E-1,4.319139957E0,1.503558636E0
2.917035156E1,-9.768342972E-1,-3.256114423E-1,1.436520964E-1
2.919039739E1,-2.059013367E0,-4.539406300E0,4.309563041E-1
2.921527239E1,-7.038952827E0,-1.609861183E1,4.596867263E-1
2.923578697E1,3.169923067E0,-1.872265816E1,-2.164358377E0
2.926037239E1,6.349422932E0,-4.616020679E0,-6.177040577E0
2.928038541E1,4.951209068E0,7.058106422E0,-3.371036053E0
2.930521562E1,-6.291962147E0,4.348828125E1,1.243069553E1
2.932522552E1,-1.425986576E1,2.541684532E1,9.481039047E0
2.934535677E1,2.681505978E-1,6.895300865E0,-6.090848923E0
2.937035208E1,-4.271255970E0,-7.527369976E0,-1.598369026E1
2.939040156E1,-2.987963676E0,1.139639974E0,2.758120298E0
2.941057864E1,8.063671112E0,1.357991219E1,-5.027823448E0
2.944777604E1,-7.718906403E0,2.638410187E1,-2.269703150E0
2.947037552E1,3.572149038E0,2.385582542E1,4.893748283E0
2.949061666E1,4.558559895E0,1.954626274E1,4.520252705E0
2.951061979E1,9.145850182E0,1.549527359E1,3.849876404E0
2.953580156E1,2.585737705E-1,1.579215431E1,2.671929121E0
2.956060052E1,-7.335834026E0,7.852981567E0,5.420472622E0
2.958527812E1,-2.987963676E0,8.475474358E0,6.062118530E0
2.961038750E1,7.987056732E0,3.897760391E0,4.156333923E0
2.963046041E1,1.146343803E1,2.106897593E0,6.129156351E-1
2.965520989E1,4.683058739E0,5.200206280E0,1.762132406E0
2.968039375E1,-2.882618904E0,4.644751072E0,9.864110947E-1
2.970040364E1,-9.174580574E0,6.895300746E-1,-2.355894566E0
2.972520989E1,-7.805097580E0,-1.024718285E0,-2.691082716E0
2.974528072E1,4.022258818E-1,4.836287498E0,1.762132406E0
2.976534218E1,1.055364132E1,4.192726135E1,5.612008572E0
2.979058125E1,-7.412448406E0,2.439212608E1,-5.219359875E0
2.981525885E1,-1.340752989E-1,1.986229706E1,9.251194954E0
2.983551822E1,0.000000000E0,2.636494827E1,4.529829502E0
2.986037135E1,6.445190907E0,2.323333359E1,-3.256114423E-1
2.988042239E1,5.114014626E0,1.742978859E1,2.288856745E0
2.990697239E1,1.197100878E0,8.762778282E0,2.815581083E0
2.993051041E1,-6.799532771E-1,3.208230257E0,1.177947283E0
2.995150833E1,-7.852981687E-1,-7.374141216E-1,5.458779931E-1
2.997520312E1,-4.778826714E0,-7.412448406E0,-9.576806799E-3
2.999523645E1,-5.037400246E0,-1.855985069E1,-1.675941229E0
3.002037812E1,4.673481941E0,-1.245942593E1,-7.441178799E0
3.004523697E1,3.284844637E0,2.853888512E0,-1.991975784E0
3.006530625E1,-2.566584110E0,2.243845749E1,7.249642849E0
3.009039010E1,-6.502651691E0,3.153642464E1,1.259350109E1
3.011056979E1,-2.911349297E0,6.033388138E0,-2.011129409E-1
3.013623541E1,4.118026793E-1,3.055001259E0,-9.433155060E0
3.016035729E1,-4.070142746E0,1.218169785E1,-3.955221176E0
3.018523437E1,6.224924564E0,1.695094872E1,5.841852427E-1
3.021034895E1,-1.647210717E0,8.034940720E0,-6.483498096E0
3.023039010E1,-2.949656487E0,5.142745018E0,5.075707436E-1
3.025069010E1,1.379060149E0,2.549345970E1,-7.278373241E-1
3.027540104E1,5.966350555E0,3.034889984E1,4.386177540E0
3.030057604E1,8.916007042E0,1.360864258E1,2.442085743E0
3.032525729E1,-3.993528366E0,1.048660374E1,3.485957623E0
3.035057760E1,-8.437167168E0,9.002198219E0,6.090848923E0
3.037519062E1,-2.873041928E-1,7.603984833E0,6.512228489E0
3.039525000E1,6.521805286E0,3.667917013E0,2.853888512E0
3.042039791E1,8.781931877E0,2.576161146E0,-1.158793569E0
3.044682916E1,5.401319027E0,6.445190907E0,3.457227230E0
3.047059114E1,-3.361459255E0,3.016694069E0,5.659893036E0
3.049519114E1,-1.131978607E1,1.312022567E0,-4.309563160E0
3.051527552E1,-6.014234543E0,2.145204782E0,-4.242525578E0
3.053556093E1,3.581725836E0,1.267011547E1,4.127603531E0
3.056036145E1,3.715801001E0,4.231990814E1,-9.902418137E0
3.058520677E1,2.873041928E-1,1.568680954E1,1.126232433E1
3.061038385E1,-1.608903527E0,2.750458908E1,3.629609823E0
3.063797500E1,6.799532771E-1,2.546472931E1,-1.244984865E-1
3.066036250E1,6.684611320E0,2.008256340E1,1.417367458E0
3.068060156E1,2.173935175E0,1.342668343E1,3.265691042E0
3.070524947E1,7.278373241E-1,6.655880928E0,3.112462282E0
3.073038854E1,-2.394201756E-1,1.053448796E0,2.432508945E0
3.075058437E1,1.532289088E-1,-3.045424461E0,2.221819162E0
3.077519270E1,-4.587290287E0,-9.768342972E0,5.075707436E-1
3.079521562E1,-1.043871999E0,-2.142331696E1,-2.595314741E0
3.081527395E1,3.658340216E0,-1.135809326E1,-6.253654957E0
3.083556041E1,1.742978811E0,-1.197100878E0,-5.219359875E0
3.086057083E1,-3.849876404E0,1.710417747E1,2.719813108E0
3.088518854E1,-8.638279915E0,3.191949654E1,1.435563374E1
3.090529062E1,-5.075707436E0,1.357033539E1,4.252102375E0
3.093036979E1,-2.614468336E0,2.141374016E1,-1.739148140E1
3.095540468E1,4.692635536E0,5.851428986E0,-3.677493811E0
3.098036927E1,4.357447147E0,9.768342972E-1,-2.681505978E-1
3.100055052E1,2.729389906E0,-4.501099288E-1,-5.410895824E0
3.102525000E1,1.723825186E-1,1.807143402E1,5.133168221E0
3.104528541E1,-1.244984865E-1,5.476975632E1,-1.244984913E1
3.107037239E1,6.406883717E0,8.485051155E0,5.899312973E0
3.109038385E1,7.661445618E0,8.360552788E0,5.401319027E0
3.111525624E1,-2.624045134E0,1.808101082E1,3.447650433E0
3.113588072E1,-9.232041359E0,1.239238834E1,7.623138428E0
3.116042135E1,-1.522712231E0,8.034940720E0,2.202665567E0
3.118520781E1,6.904877663E0,2.260126352E0,2.844311714E0
3.121036979E1,9.605537415E0,1.417367458E0,2.422932148E0
3.123550989E1,5.707777023E0,6.713341713E0,5.133168221E0
3.126035781E1,9.959878922E-1,3.763684988E0,1.082179189E0
3.128060885E1,-7.948749542E0,1.206677675E0,-4.520252705E0
3.130521666E1,-9.481039047E0,-7.757213712E-1,-6.291962147E0
3.133038281E1,-7.661445141E-1,4.510675907E0,4.098873138E0
3.135521145E1,1.009395409E1,4.596867371E1,-3.256114244E0
3.138074166E1,-4.548983097E0,1.873223495E1,4.414907932E0
3.140520989E1,-1.656787634E0,2.280237770E1,5.458779812E0
3.143057083E1,2.997540474E0,2.595314598E1,9.481038451E-1
3.145155052E1,8.628703117E0,2.289814568E1,8.619125932E-2
3.147518802E1,4.165910721E0,1.485362720E1,2.308010340E0
3.149527812E1,-3.351882398E-1,9.184157372E0,3.936067581E0
3.152040677E1,-2.806004286E0,2.537853718E0,3.102885485E0
3.154532708E1,-2.595314741E0,-3.227383852E0,4.003105164E0
3.157036822E1,-6.387730122E0,-9.203310966E0,7.278373241E-1
3.159042031E1,-3.677493811E0,-2.210326958E1,-4.108449936E0
3.161528489E1,4.041412354E0,-8.619126320E0,-8.092401505E0
3.163557395E1,3.916913986E0,2.298433542E0,-4.309563160E0
3.166039531E1,-7.757213712E-1,1.713290787E1,2.183511972E0
3.168040677E1,-5.487510204E0,3.457227325E1,1.347456741E1
3.170519062E1,-6.282385349E0,1.331176186E1,4.242525578E0
3.172522500E1,3.734954596E-1,2.031240654E1,-8.647856712E0
3.174529739E1,2.681505978E-1,-3.620033026E0,-7.431602001E0
3.177220208E1,9.768342972E-1,-1.503558636E0,-8.619125932E-2
3.179529739E1,6.885724068E0,8.935160637E0,-9.184157372E0
3.182057083E1,2.777273953E-1,3.072239685E1,-1.321599364E0
3.184060625E1,1.331176162E0,3.864241409E1,-1.886630893E0
3.186531145E1,4.271255970E0,1.380017853E1,6.991068840E0
3.189038489E1,6.598419666E0,1.538035202E1,6.406883717E0
3.191527343E1,-3.706224203E0,1.361821938E1,4.568136692E0
3.194837968E1,-2.806004286E0,5.497087002E0,3.380612850E0
3.197036302E1,6.033388376E-1,2.403778553E0,5.171475887E0
3.199060468E1,5.497087002E0,3.734954596E-1,1.982398987E0
3.201527031E1,6.627150536E0,6.339846134E0,9.576806426E-2
3.203557864E1,4.979939461E0,5.631162167E0,5.257667065E0
3.206059687E1,-3.782838583E0,3.964797974E0,9.193734527E-1
3.208520676E1,-9.825803757E0,2.422932148E0,-5.439626217E0
3.210537187E1,-7.249642849E0,-5.267243981E-1,-4.434061527E0
3.213035833E1,2.796427488E0,1.241154194E1,2.451662540E0
3.215040364E1,7.575253963E0,4.681143188E1,-5.085284233E0
3.217521302E1,-3.821146011E0,1.204762268E1,4.855441093E0
3.219521666E1,2.221819162E0,2.095405388E1,8.906430244E0
3.221525989E1,1.407790542E0,3.212060928E1,1.465251446E0
3.223558229E1,2.355894566E0,2.689167404E1,-1.072602391E0
3.226039114E1,3.677493811E0,1.728613663E1,3.332728863E0
3.228057604E1,-4.213795066E-1,1.164539719E1,5.631162167E0
3.230520104E1,-6.033388376E-1,5.573701382E0,2.786850691E0
3.233036510E1,-7.086837292E-1,8.810662031E-1,1.551442742E0
3.235519322E1,-2.384624958E0,-4.453215122E0,2.767697096E0
3.237521822E1,-4.395754337E0,-9.107542992E0,-4.788403213E-2
3.240060364E1,2.279279947E0,-1.442267132E1,-2.585737944E0
3.242520937E1,4.261679173E0,-5.152322292E0,-2.863465309E0
3.244764322E1,-6.320692301E-1,4.548983097E0,-1.963245392E0
3.247036562E1,-6.751648903E0,2.236184311E1,5.085284233E0
3.249037500E1,-6.129156113E0,1.867477417E1,1.157835960E1
3.251041145E1,-5.305551052E0,1.369483376E1,-4.788403511E-1
3.253550624E1,-1.666364431E0,7.134721279E0,-3.131615877E0
3.256037760E1,1.042914295E1,7.967903137E0,2.489969730E-1
3.258527135E1,6.856993675E0,8.283937454E0,-1.166455078E1
3.261035052E1,1.618480325E0,1.346499062E1,-1.235408068E0
3.263037291E1,-2.662352324E0,3.501280594E1,-1.675941229E0
3.265039062E1,-1.742978811E0,2.450704765E1,8.609549522E0
3.267060416E1,4.999093056E0,1.129105568E1,5.564124584E0
3.269521093E1,3.562572241E0,1.492066479E1,-1.915361360E-2
3.271536666E1,-5.554547787E0,1.187524033E1,3.428496838E0
3.273590520E1,-6.387730122E0,8.025363922E0,6.397306919E0
3.276037135E1,2.030282974E0,5.631162167E0,5.554547906E-1
3.278038854E1,1.066856289E1,1.723825216E0,7.852981687E-1
3.280056093E1,1.004607010E1,4.932055473E0,4.290409565E0
3.282528437E1,2.729389906E0,6.971915245E0,5.861005783E0
3.285042760E1,-4.232948780E0,5.219359875E0,1.015141487E0
3.287520624E1,-8.360552788E0,1.838746905E0,-3.734954596E0
3.290057031E1,-3.083731890E0,9.768342972E-1,-3.083731890E0
3.292521406E1,6.607996464E0,2.416228294E1,5.937620401E-1
3.294892604E1,4.692635238E-1,3.313574982E1,-1.081221485E1
3.297035052E1,-2.011129409E-1,1.504516315E1,9.682151794E0
3.299041666E1,4.213795066E-1,2.716940117E1,3.351882458E0
3.301058437E1,4.501099288E-1,2.948698807E1,1.723825186E-1
3.303583020E1,4.501099110E0,2.355894470E1,1.493981838E0
3.306038281E1,1.302445769E0,1.484405041E1,4.855441093E0
3.308516770E1,7.852981687E-1,7.680599213E0,2.509123325E0
3.310518749E1,1.819593310E-1,3.447650433E0,1.110909581E0
3.312519427E1,-1.915361360E-2,-1.149216771E0,1.034295082E0
3.314533645E1,-2.585737944E0,-6.052541733E0,9.864110947E-1
3.317036874E1,-2.585737944E0,-1.371398735E1,-2.365471363E0
3.319039270E1,3.313575268E0,-1.608903503E1,-3.792415380E0
3.321525468E1,2.394201756E0,-2.978386879E0,-3.342305660E0
3.323576979E1,-7.565677166E-1,4.979939461E0,-2.298433632E-1
3.326061458E1,-8.504204750E0,2.582864761E1,1.131978607E1
3.328516614E1,-8.762778282E0,2.806962013E1,1.380017853E1
3.330525989E1,2.604891539E0,1.949837875E1,-2.592441559E1
3.333046354E1,-1.695094824E0,-5.248090267E0,-1.312022567E0
3.335518437E1,8.188169479E0,-2.796427488E0,-3.447650373E-1
3.337523749E1,7.383718014E0,-3.734954596E-1,-9.069235802E0
3.340055833E1,1.742978811E0,3.066493607E1,4.616020679E0
3.342059739E1,-1.062067890E1,5.193502426E1,-6.157886982E0
3.344752968E1,1.867477298E0,8.839392662E0,6.847416878E0
3.347058437E1,6.062118530E0,1.158793640E1,3.160346270E0
3.349062395E1,4.702212334E0,1.903869247E1,-1.886630893E0
3.351526718E1,-9.461885452E0,1.121444035E1,7.422025204E0
3.353575885E1,-3.869029999E0,6.387730122E0,5.880159378E0
3.356035781E1,3.591302633E0,2.346317768E0,5.152322292E0
3.358036926E1,9.366117477E0,-3.543418646E-1,-2.154781580E0
3.360521197E1,8.705317497E0,7.900865555E0,3.160346150E-1
3.363037552E1,2.710236311E0,5.995080948E0,6.186617374E0
3.365057656E1,-4.721365929E0,3.754108191E0,1.944091797E0
3.367519270E1,-1.089840603E1,1.130063176E0,-4.252102375E0
3.369534218E1,-5.315127850E0,2.221819162E0,-2.355894566E0
3.372059010E1,7.795520782E0,2.298433685E1,4.003105164E0
3.374537343E1,-2.777273953E-1,3.349967194E1,-1.310107136E1
3.377062083E1,-3.035847664E0,1.697967911E1,9.777919769E0
3.379521874E1,-2.164358377E0,2.360682869E1,2.968810081E0
3.381524895E1,9.864110947E-1,2.321417999E1,8.810662031E-1
3.383581406E1,6.933608055E0,2.212242317E1,1.532289028E0
3.386036562E1,1.580173135E0,1.379060173E1,3.667917013E0
3.388039739E1,3.734954596E-1,7.958326340E0,3.792415380E0
3.390525416E1,-2.116474390E0,2.997540474E0,3.562572241E0
3.393035572E1,-3.600879431E0,-2.442085743E0,4.098873138E0
3.395056302E1,-5.295974255E0,-7.192182064E0,3.859453201E0
3.397521458E1,-4.979939461E-1,-1.484405041E1,0.000000000E0
3.400057604E1,5.573701382E0,-1.005564690E1,-2.231395960E0
3.402526926E1,5.985504150E0,4.299986362E0,-3.687070608E0
3.405036406E1,-1.350329757E0,3.188118935E1,8.427590132E-1
3.407042916E1,-9.279925346E0,2.232353592E1,9.203310966E0
3.409521927E1,-4.941632271E0,1.288080502E1,2.518700123E0
3.411527343E1,-8.101978302E0,5.257667065E0,-1.710417747E1
3.413585833E1,-6.129156113E0,-4.912901878E0,-2.633621931E0
3.416035885E1,1.627099419E1,7.757213593E0,1.474828243E0
3.418037343E1,9.720458984E0,7.240066051E0,-9.988609314E0
3.420058229E1,4.434061527E0,2.154781532E1,-6.607996821E-1
3.422521249E1,-2.758120298E0,2.795469856E1,2.767697096E0
3.425064270E1,6.703764945E-2,1.350329781E1,6.272808552E0
3.427522239E1,5.085284233E0,1.226788998E1,3.869029999E0
3.429529687E1,4.395754337E0,2.022621536E1,-2.671929121E0
3.431530312E1,-8.475474358E0,1.356075859E1,3.399766445E0
3.433554426E1,-8.532935143E0,9.471462250E0,6.224924564E0
3.436057656E1,-1.493981838E0,7.144298077E0,6.320692539E0
3.438526458E1,4.529829502E0,1.053448796E0,1.493981838E0
3.440527291E1,7.115567684E0,-2.987963676E0,-4.395754337E0
3.443037812E1,4.855441093E0,5.066130638E0,3.706224203E0
3.445173697E1,2.250549555E0,5.219359875E0,4.414907932E0
3.447520312E1,-6.291962147E0,8.619126081E-1,-2.844311714E0
3.450035833E1,-1.886630893E0,2.183511972E0,-2.269703150E0
3.452036718E1,3.687070608E0,1.504516315E1,4.568136692E0
3.454040364E1,2.968810201E-1,4.396712112E1,-9.260771751E0
3.456527708E1,-3.189076662E0,1.524627686E1,1.008437729E1
3.459038229E1,-1.216254473E0,2.406651497E1,3.591302633E0
3.461526770E1,3.208230257E0,2.161485291E1,7.469909191E-1
3.463579739E1,7.402871609E0,2.014960098E1,1.244984865E0
3.466034479E1,2.729389906E0,1.453759289E1,1.216254473E0
3.468036562E1,5.075707436E-1,8.925583839E0,7.469909191E-1
3.470036614E1,-1.532289088E-1,3.265691042E0,1.043871999E0
3.472037552E1,6.799532771E-1,-7.852981687E-1,1.359906554E0
3.474042812E1,-2.269703150E0,-3.926490784E0,2.451662540E0
3.476527760E1,-2.729389906E0,-1.013226128E1,2.030282974E0
3.479063229E1,-2.489969730E-1,-1.065898609E1,-1.197100878E0
3.481527552E1,1.991975784E0,3.830722719E-2,-1.685518026E0
3.483589947E1,-4.261679173E0,2.344402313E1,3.371036053E0
3.486034947E1,-4.960785866E0,1.645295334E1,1.312022495E1
3.488039531E1,-5.075707436E-1,2.355894566E0,1.484405041E0
3.490521145E1,-1.704671621E0,3.936067581E0,-1.697967911E1
3.493037656E1,-1.838746905E0,1.815762520E1,2.020706177E0
3.495393333E1,6.502651691E0,1.603157425E1,3.189076662E0
3.497519583E1,5.458779931E-1,1.177947235E1,-7.010222435E0
3.499521510E1,-2.375048161E0,1.166455078E1,3.447650373E-1
3.501527447E1,1.005564690E0,3.035847664E1,2.106897533E-1
3.503580260E1,1.637633920E0,2.195961761E1,1.905784607E0
3.506055885E1,6.138733387E0,1.654872131E1,2.480392933E0
3.508057864E1,5.947196960E0,1.825339317E1,2.336740971E0
3.510527447E1,-6.205770969E0,1.071644688E1,4.050989151E0
3.513036874E1,-6.598419666E0,7.718906403E0,4.797980309E0
3.515520520E1,8.523358107E-1,2.825158119E0,5.075707436E0
3.518035885E1,7.010222435E0,5.746083856E-1,1.101332784E0
3.520520312E1,8.571242332E0,4.903325081E0,3.141192675E0
3.522524947E1,2.863465309E0,3.083731890E0,1.733402014E0
3.525037864E1,-4.127603531E0,1.168370485E0,-6.416460276E-1
3.527521458E1,-8.159439087E0,1.628057212E-1,-3.141192675E0
3.529523489E1,-1.187524080E0,3.083731890E0,-2.614468336E0
3.531525781E1,7.833827972E0,2.325248718E1,1.513135433E0
3.533555208E1,1.714248419E0,4.122815323E1,-9.251194954E0
3.536058593E1,-2.624045134E0,1.294784260E1,9.318233490E0
3.538523333E1,-3.514688015E0,2.666183090E1,3.658340216E0
3.541040520E1,1.187524080E0,2.440170288E1,3.734954596E-1
3.544748489E1,5.018246651E0,1.719994545E1,1.608903527E0
3.547038176E1,1.733402014E0,9.404424667E0,2.240972757E0
3.549039426E1,-9.576807022E-1,5.123591423E0,1.417367458E0
3.551060312E1,-6.991068721E-1,4.405331016E-1,3.351882398E-1
3.553576822E1,-1.158793569E0,-3.687070608E0,8.810662031E-1
3.556042864E1,-4.912901878E0,-1.055364132E1,-1.149216816E-1
3.558528749E1,2.327163935E0,-1.604115105E1,-1.369483352E0
3.561037916E1,3.208230257E0,-5.401319027E0,-3.591302633E0
3.563060364E1,3.227383852E0,6.244078159E0,-2.777273953E-1
3.565520260E1,-6.014234543E0,3.502238083E1,1.389594650E1
3.568055729E1,-1.449928570E1,2.886449623E1,2.142331696E1
3.570059062E1,1.197100830E1,2.167231369E1,-3.716758728E1
3.572521354E1,-3.217807055E0,-1.578257751E1,-7.077260017E0
3.574534479E1,1.321599364E0,-1.669237518E1,-2.834734917E0
3.576858072E1,6.042964935E0,-6.368576527E0,-1.187524033E1
3.579062083E1,-7.498639584E0,5.932831955E1,-6.703764796E-1
3.581063437E1,-6.387730122E0,4.978024292E1,9.184157372E0
3.583555729E1,3.964797974E0,4.299986362E0,3.256114244E0
3.586064739E1,1.018972206E1,1.575384712E1,-1.158793569E0
3.588520833E1,-5.937620401E-1,1.724782944E1,4.414907932E0
3.591041666E1,-5.046977043E0,7.086836815E0,7.354987621E0
3.594854426E1,1.513135433E0,1.072602391E0,1.982398987E0
3.596869062E1,5.276820660E0,-3.830722719E-2,3.514688015E0
3.599037499E1,3.380612850E0,7.508216381E0,4.951209068E0
3.601525624E1,5.449203014E0,6.004657745E0,3.275267839E0
3.603579166E1,2.786850691E0,7.565677166E-1,1.302445769E0
3.606038333E1,-7.862558365E0,1.197100878E0,-4.750096321E0
3.608059010E1,-1.041956615E1,-2.231395960E0,-5.027823448E0
3.610519426E1,-9.289502501E-1,5.133168221E0,3.035847664E0
3.612522135E1,1.231577396E1,2.999455833E1,7.077260017E0
3.614534374E1,-1.752555609E0,4.978981781E1,-1.444182491E1
3.617060416E1,-4.577713490E0,2.089659309E1,9.442731857E0
3.619520781E1,-1.924938202E0,2.463154793E1,3.418920040E0
3.621525624E1,2.901772499E0,2.121262741E1,2.173935175E0
3.623590937E1,8.561665535E0,1.810974121E1,2.298433632E-1
3.626037708E1,5.430049419E0,1.212423706E1,5.267243981E-1
3.628040312E1,9.864110947E-1,7.469909191E0,2.049436569E0
3.630527760E1,-1.484405041E0,1.091755986E0,1.599326730E0
3.633035781E1,-3.715801001E0,-4.874594688E0,2.346317768E0
3.635037499E1,-6.856993675E0,-1.221042824E1,2.394201756E-1
3.637521041E1,9.097966552E-1,-1.821508598E1,-3.303998232E0
3.639521354E1,3.016694069E0,-5.181052685E0,-5.717353821E0
3.641526249E1,3.830722809E0,3.552995205E0,-2.806004286E0
3.644773229E1,-7.661445141E-1,3.637271118E1,1.026633644E1
3.647035416E1,-9.787496567E0,2.760993385E1,1.114740276E1
3.649062447E1,1.083136845E1,2.127966499E1,-2.144247055E1
3.651528541E1,-3.246537447E0,-1.676898956E1,-8.619126320E0
3.653595156E1,-4.568136692E0,-1.994848824E1,-9.193734527E-1
3.656039843E1,7.728483200E0,1.417367458E0,-9.471462250E0
3.658059218E1,4.395754337E0,3.371036148E1,4.118026793E-1
3.660071718E1,-1.846408272E1,6.738241577E1,-1.151132202E1
3.662523333E1,4.788403213E-2,5.870582581E0,7.833827972E0
3.665059843E1,5.583278179E0,1.055364132E1,3.102885485E0
3.667520156E1,5.458779931E-1,1.936430359E1,6.703764796E-1
3.669520520E1,-6.186617374E0,9.931148529E0,6.071695328E0
3.671530468E1,-2.777273893E0,7.067683220E0,3.016694069E0
3.673554739E1,8.619125932E-2,5.334281445E0,3.323152065E0
3.676036249E1,6.569689274E0,3.687070608E0,2.700659513E0
3.678045885E1,7.173028469E0,5.746084213E0,2.308010340E0
3.680520729E1,6.349422932E0,4.788403511E0,3.342305660E0
3.682521302E1,1.877054095E0,1.762132406E0,-4.022258818E-1
3.684539739E1,-5.487510204E0,1.283292055E0,-3.160346270E0
3.687036458E1,-6.512228489E0,1.771709204E0,-1.446097851E0
3.689038593E1,-2.442085743E0,1.200931549E1,1.436521053E0
3.691059999E1,7.469909191E0,3.515645599E1,3.169923067E0
3.694832343E1,-1.053448766E-1,2.360682869E1,7.173028469E0
3.697038802E1,-2.470816135E0,3.179499817E1,1.810016513E0
3.699039583E1,1.244984865E0,2.403778458E1,3.227383852E0
3.701056874E1,5.334281445E0,1.857900429E1,2.173935175E0
3.703577864E1,2.154781580E0,1.357033539E1,2.375048161E0
3.706039739E1,1.915361285E-1,7.517793179E0,1.944091797E0
3.708521145E1,-4.213795066E-1,1.551442742E0,2.777273953E-1
3.710521666E1,-3.256114423E-1,-1.934514999E0,-3.447650373E-1
3.713036614E1,-4.299986362E0,-8.331821442E0,-3.821146011E0
3.715036926E1,-4.529829502E0,-2.102109146E1,-3.371036053E0
3.717521093E1,5.813121796E0,-8.149862289E0,-8.772355080E0
3.719546197E1,4.204218388E0,9.193734527E-1,-3.849876404E0
3.722059687E1,3.543418646E-1,1.318726254E1,2.173935175E0
3.724523020E1,-9.710882187E0,3.695689774E1,1.722867584E1
3.726529635E1,-1.025675964E1,2.544557571E1,9.576807022E0
3.729042552E1,7.316680431E0,9.576807022E0,-3.038720703E1
3.731525885E1,-5.228936672E0,-1.696052551E1,-4.778826714E0
3.733587447E1,9.289502144E0,-1.209550667E1,-4.405331016E-1
3.736037395E1,7.489062786E0,-1.790862918E0,-7.220912457E0
3.738038906E1,-1.091755986E0,6.206728363E1,4.788403511E-1
3.740039062E1,6.320692301E-1,3.700477982E1,9.701305389E0
3.742057031E1,2.240972757E0,7.718906403E0,7.038952827E0
3.744834166E1,9.088389397E0,1.194227791E1,2.451662540E0
3.747040312E1,-3.447650373E-1,1.799481964E1,3.208230257E0
3.749059687E1,-7.632715225E0,8.791508675E0,7.393294811E0
3.751526145E1,-3.045424461E0,5.793968201E0,8.236053586E-1
3.753580520E1,2.873041928E-1,4.319139957E0,3.122039080E0
3.756037343E1,5.295974255E0,1.771709204E0,3.007117271E0
3.758038281E1,4.903325081E0,4.213795185E0,3.859453201E0
3.760520572E1,3.074155092E0,3.524264812E0,4.242525578E0
3.762528020E1,-2.853888512E0,2.940079689E0,-1.149216771E0
3.764534010E1,-7.460332394E0,-6.799532771E-1,-4.232948780E0
3.767042031E1,-6.110002518E0,4.501099288E-1,2.145204782E0
3.769521510E1,4.108449936E0,7.067683220E0,3.093308687E0
3.771526874E1,1.406832886E1,4.841075897E1,-2.834734917E0
3.773584062E1,-5.554547787E0,2.919010735E1,-1.008437729E1
3.776039166E1,-2.116474390E0,1.833958435E1,8.829815865E0
3.778521614E1,-4.788403511E-1,2.419101334E1,1.953668594E0
3.780521927E1,4.309563160E0,2.006340981E1,-1.053448766E-1
3.782542499E1,6.847416878E0,1.711375427E1,1.637633920E0
3.785034895E1,5.363011956E-1,1.230619717E1,4.175487995E0
3.787037656E1,-1.043871999E0,7.862558365E0,3.332728863E0
3.789041666E1,-2.758120298E0,2.997540474E0,1.465251446E0
3.791529114E1,-2.566584110E0,-1.810016513E0,1.072602391E0
3.794833281E1,-6.138733387E0,-1.210508347E1,-2.068590164E0
3.797057604E1,3.811569214E0,-1.560061836E1,-4.692635536E0
3.799518072E1,6.962338448E0,-1.915361404E0,-2.719813108E0
3.801522760E1,1.819593310E0,1.020887566E1,2.298433632E-1
3.803590416E1,-5.726930618E0,3.378697586E1,8.705317497E0
3.806037760E1,-5.707777023E0,2.479435349E1,1.478658962E1
3.808057552E1,5.401319027E0,2.624044991E1,-2.635537148E1
3.810524166E1,-5.477933407E0,-8.935160637E0,-4.778826714E0
3.813037291E1,1.216254473E0,-7.939172745E0,6.416460276E-1
3.815057812E1,6.234501362E0,7.948749661E-1,-9.528923035E0
3.817061770E1,5.975927353E0,2.916137695E1,-1.072602391E0
3.819524635E1,-1.359906554E0,3.935110092E1,3.706224203E0
3.822035937E1,2.432508945E0,6.397306919E0,6.560112476E0
3.824040468E1,5.075707436E0,9.931148529E0,2.403778553E0
3.826522760E1,-1.589749932E0,1.719994545E1,2.959233284E0
3.829040468E1,-4.070142746E0,1.086009884E1,5.717353821E0
3.831524687E1,-1.321599364E0,7.431602001E0,9.768342972E-1
3.833586093E1,3.936067581E0,2.652775526E0,2.509123325E0
3.836036041E1,6.416460514E0,2.509123325E0,5.966350555E0
3.838045729E1,9.682151794E0,4.912901878E0,6.177040577E0
3.840518802E1,1.934514999E0,4.280832767E0,-3.160346150E-1
3.843041822E1,-6.291962147E0,1.101332784E0,-4.558559895E0
3.845149635E1,-7.872135162E0,-4.118026793E-1,-2.796427488E0
3.847520468E1,-1.608903527E0,5.774814606E0,9.959878922E-1
3.850036458E1,9.279925346E0,4.571967697E1,-2.336740971E0
3.852057760E1,-7.297526836E0,2.757162666E1,-1.023760605E1
3.854059010E1,-2.212242365E0,1.661575890E1,1.007480049E1
3.856526822E1,-8.236053586E-1,2.656606293E1,2.355894566E0
3.859041197E1,5.142745018E0,2.235226631E1,1.915361285E-1
3.861526197E1,5.956773758E0,1.619437981E1,1.733402014E0
3.863588385E1,1.168370485E0,1.026633644E1,2.039859772E0
3.866038906E1,-7.948749661E-1,4.788403511E0,8.140285611E-1
3.868521354E1,-1.120486379E0,-1.158793569E0,7.852981687E-1
3.870527031E1,-2.968810081E0,-6.483498096E0,1.436521053E0
3.873039218E1,-4.242525578E0,-2.036986732E1,-6.224924326E-1
3.875039895E1,3.581725836E0,-1.472912884E1,-6.014234543E0
3.877058854E1,3.256114244E0,-4.127603531E0,-5.947196960E0
3.879524895E1,2.030282974E0,1.362779617E1,-7.278373241E-1
3.881564374E1,-5.286397457E0,3.935110092E1,1.599326706E1
3.883594583E1,-7.776367188E0,1.945049477E1,1.016099167E1
3.886034635E1,5.746083856E-1,2.547430515E0,-3.227383852E0
3.888037291E1,-9.174580574E0,5.688623428E0,-1.776497650E1
3.890057239E1,-4.989516258E0,1.792778206E1,-9.289502501E-1
3.892519843E1,6.885724068E0,8.293514252E0,1.819593310E0
3.894863854E1,3.189076662E0,9.414001465E0,-1.044829655E1
3.897034843E1,-8.236053586E-1,2.534023094E1,-1.398213744E0
3.899044114E1,1.484405041E0,3.399766541E1,3.562572241E0
3.901059895E1,3.380612850E0,1.770751572E1,4.539406300E0
3.903587656E1,5.774814606E0,1.177947235E1,5.056553841E0
3.906035416E1,-1.541865945E0,1.298614979E1,1.206677675E0
3.908063385E1,-7.000645638E0,9.519346237E0,5.353435040E0
3.910521562E1,-2.413355350E0,8.111555099E0,6.560112476E0
3.913061822E1,5.612008572E0,2.001552582E0,2.528276920E0
3.915520520E1,8.667010307E0,-9.576806799E-3,5.171475410E-1
3.918037499E1,7.661445618E0,5.372588634E0,4.711789131E0
3.920520260E1,-1.819593310E0,4.367023945E0,1.254561663E0
3.923035468E1,-1.108036518E1,2.202665508E-1,-4.941632271E0
3.925059062E1,-9.787496567E0,-6.895300746E-1,-2.039859772E0
3.927521822E1,1.484405041E0,5.353435040E0,3.572149038E0
3.929543124E1,1.338837624E1,4.345954895E1,1.072602391E0
3.932060051E1,-6.971915245E0,2.940079689E1,-1.024718285E1
3.934533906E1,-1.599326730E0,1.805228043E1,6.761225700E0
3.937060364E1,1.082179189E0,2.252464867E1,1.474828243E0
3.939518854E1,7.632715225E0,1.865562057E1,2.585737705E-1
3.941527812E1,5.104437828E0,1.473870564E1,9.481038451E-1
3.944798958E1,-6.224924326E-1,7.393294811E0,1.723825216E0
3.947037395E1,-3.409343243E0,2.288856745E0,1.628057122E0
3.949043385E1,-4.290409565E0,-2.758120298E0,2.001552582E0
3.951526666E1,-6.789956093E0,-9.816226959E0,1.915361285E-1
3.953576822E1,-5.746083856E-1,-1.605072784E1,-1.177947283E0
3.956059062E1,6.224924564E0,-4.979939461E0,-4.252102375E0
3.958522031E1,3.371036053E0,6.196194172E0,-6.703764945E-2
3.961037656E1,-2.624045134E0,2.650860214E1,9.911994934E0
3.963587291E1,-4.031835556E0,1.666364288E1,8.695740700E0
3.966042187E1,2.614468336E0,1.953668594E1,-2.023579216E1
3.968520364E1,-4.405331135E0,3.687070608E0,-5.458779931E-1
3.970520416E1,4.501099288E-1,1.762132406E0,1.187524080E0
3.972522031E1,5.295974255E0,5.544970989E0,-8.829815865E0
3.974548958E1,1.934514999E0,8.188169479E0,-5.717353821E0
3.977060520E1,-1.426944256E0,4.740519333E1,-5.554547787E0
3.979520156E1,4.568136692E0,1.718079185E1,5.286397457E0
3.981524947E1,6.847416878E0,1.082179165E1,5.544970989E0
3.983553072E1,6.904877663E0,1.784159088E1,3.026270866E0
3.986039062E1,-5.755661011E0,1.509304714E1,2.911349297E0
3.988520989E1,-4.012681961E0,9.356540680E0,5.200206280E0
3.990527343E1,1.101332784E0,4.491522312E0,8.829815865E0
3.993036406E1,7.862558365E0,-9.193734527E-1,1.407790542E0
3.995167760E1,3.380612850E0,-1.082179189E0,-1.177947283E0
3.997520728E1,-1.312022567E0,4.663905144E0,1.225831270E0
3.999528489E1,-2.087743998E0,4.070142746E0,2.959233284E0
4.002036770E1,-5.516240597E0,6.607996821E-1,-3.351882398E-1
4.004057083E1,-5.315127850E0,1.762132406E0,9.289502501E-1
4.006527708E1,1.149216771E0,4.137180328E0,2.202665508E-1
4.009039478E1,1.222958183E1,3.005201912E1,9.538499832E0
4.011527812E1,-8.034940720E0,3.260902786E1,-1.252646351E1
4.013598593E1,-9.576806799E-3,1.339795303E1,8.992621422E0
4.016053020E1,2.968810201E-1,2.284068489E1,5.726930618E0
4.018519062E1,4.730942726E0,1.968033791E1,1.628057212E-1
4.020521822E1,2.920926094E0,1.534204483E1,2.260126352E0
4.022521874E1,1.273715258E0,1.086967564E1,1.647210717E0
4.025036145E1,-1.235408068E0,4.999093056E0,1.369483352E0
4.027058281E1,-2.135627985E0,3.830722570E-1,1.331176162E0
4.029519322E1,-3.026270866E0,-4.606443882E0,3.734954596E0
4.031529374E1,-4.979939461E0,-1.258392429E1,3.648763418E0
4.033580728E1,3.447650373E-1,-1.563892555E1,-2.470816135E0
4.036036406E1,3.639186621E0,-4.280832767E0,-3.974374771E0
4.038057447E1,3.562572241E0,1.082179165E1,-1.197100878E0
4.040522187E1,-4.941632271E0,3.104800797E1,1.335964584E1
4.043038801E1,-2.173935175E0,8.820239067E0,9.557653427E0
4.045910781E1,-1.283292055E0,2.949656487E0,-1.525585365E1
4.048039426E1,-2.815581083E0,1.137724686E1,-5.937620401E-1
4.050526406E1,7.182605267E0,1.201889229E1,-2.336740971E0
4.053037916E1,2.480392933E0,1.300530338E1,-8.389283180E0
4.055038489E1,-3.141192675E0,1.493981838E1,1.235408068E0
4.057519218E1,3.102885485E0,2.972640800E1,7.565677166E-1
4.059521614E1,4.826710701E0,1.906742287E1,3.945644379E0
4.061527656E1,7.508216381E0,1.208592987E1,3.734954596E0
4.063583958E1,5.046977043E0,1.451843929E1,1.819593310E0
4.066036666E1,-3.964797974E0,1.226788998E1,2.470816135E0
4.068037031E1,-4.817133904E0,1.135809326E1,4.826710701E0
4.070520468E1,6.033388376E-1,4.386177540E0,5.995080948E0
4.073037604E1,1.666364431E0,1.532289088E-1,4.979939461E0
4.075519843E1,5.621585369E0,6.033388376E-1,2.585737705E-1
4.077587291E1,4.529829502E0,5.554547787E0,3.734954596E0
4.080037343E1,-1.541865945E0,6.253654957E0,2.384624958E0
4.082057968E1,-7.977479935E0,1.436521053E0,-4.127603531E0
4.084520364E1,-6.368576527E0,-1.589749932E0,-3.734954596E-1
4.086529374E1,-7.565677166E-1,3.974374771E0,2.212242365E0
4.089057239E1,1.047702694E1,4.139096069E1,-4.979939461E-1
4.091525468E1,-8.963891029E0,2.604891396E1,-8.820239067E0
4.094820833E1,-1.695094824E0,2.074336433E1,6.943184853E0
4.097059999E1,1.206677675E0,2.227565193E1,1.455674648E0
4.099522239E1,6.924031258E0,1.761174774E1,1.149216771E0
4.101526822E1,3.562572241E0,1.424071217E1,2.422932148E0
4.103581562E1,1.580173135E0,8.877699852E0,1.120486379E0
4.106057499E1,-4.405331016E-1,3.629609823E0,1.063025594E0
4.108518906E1,-1.417367458E0,-1.043871999E0,1.656787634E0
4.110528333E1,-4.012681961E0,-4.548983097E0,3.524264812E0
4.113037187E1,-3.256114244E0,-1.422155857E1,-6.703764945E-2
4.115064479E1,1.551442742E0,-1.178904915E1,-5.401319027E0
4.117519739E1,4.520252705E0,-1.197100878E0,-2.959233284E0
4.119526926E1,3.399766445E0,1.577300072E1,4.070142746E0
4.121528072E1,-2.758120298E0,2.788766098E1,1.605072784E1
4.123587343E1,-4.299986362E0,1.488235760E1,1.043871975E1
4.126035937E1,5.573701382E0,2.691082764E1,-2.345359993E1
4.128038541E1,-1.867477298E0,2.566584110E0,-7.345410824E0
4.130521614E1,-5.554547906E-1,-2.020706177E0,2.308010340E0
4.132522187E1,2.825158119E0,3.294421434E0,-7.910442352E0
4.134529791E1,-1.130063176E0,8.638279915E0,-1.244984865E0
4.136534687E1,-1.282334423E1,4.754884720E1,-7.402871609E0
4.139041718E1,8.054094315E0,2.141374016E1,6.215347767E0
4.141062083E1,9.414001465E0,1.085052204E1,1.829170108E0
4.144737864E1,2.327163935E0,1.639549255E1,1.340752959E0
4.147037760E1,-6.023811340E0,1.061110210E1,6.751648903E0
4.149038124E1,-2.116474390E0,8.580819130E0,6.493074894E0
4.151531406E1,2.729389906E0,5.104437828E0,4.434061527E0
4.153582499E1,4.855441093E0,3.428496838E0,2.585737705E-1
4.156037812E1,6.244078159E0,3.476380825E0,9.576807022E-1
4.158527864E1,7.852981567E0,5.267243862E0,3.323152065E0
4.161036666E1,2.106897533E-1,2.470816135E0,3.169923067E0
4.163037343E1,-8.580819130E0,-1.331176162E0,-2.758120298E0
4.165519739E1,-6.684611320E0,3.141192675E0,-3.275267839E0
4.167521666E1,-1.043871999E0,1.016099167E1,2.394201756E-1
4.169522499E1,7.134721279E0,4.042370224E1,-1.417367458E0
4.171526718E1,-5.544970989E0,2.840480804E1,-7.776367188E0
4.173591145E1,-1.312022567E0,1.800439644E1,4.501099110E0
4.176034843E1,1.877054095E0,2.109770584E1,3.667917013E0
4.178058697E1,4.424484730E0,1.792778206E1,2.317587137E0
4.180520937E1,6.770802498E0,1.576342392E1,1.838746905E0
4.182527291E1,1.216254473E0,1.133893967E1,3.782838583E0
4.185035937E1,-1.130063176E0,6.148310184E0,3.457227230E0
4.187058072E1,-1.867477298E0,3.160346270E0,2.528276920E0
4.189523385E1,-1.350329757E0,5.554547906E-1,6.129156351E-1
4.191565260E1,-2.308010340E0,-1.781286120E0,1.905784607E0
4.195842239E1,4.118026793E-1,-1.071644688E1,-1.599326730E0
4.198036978E1,3.993528366E0,-1.532289028E0,-3.074155092E0
4.200057083E1,2.422932148E0,1.021845245E1,-1.618480325E0
4.202521041E1,-5.286397457E0,2.805046654E1,1.155920601E1
4.204527708E1,-4.012681961E0,1.601242065E1,1.379060173E1
4.206535937E1,-2.748543501E0,9.299078941E0,-2.552219009E1
4.209041510E1,-7.230489254E0,-1.810016513E0,9.193734527E-1
4.211526978E1,6.301538944E0,6.416460514E0,-2.489969730E0
4.213555676E1,5.133168221E0,1.370441055E1,-9.318233490E0
4.216038229E1,-2.806004286E0,3.509899521E1,-5.018246651E0
4.218058854E1,3.236960649E0,2.437297249E1,6.607996464E0
4.220521718E1,4.529829502E0,1.152089882E1,6.148310184E0
4.222530156E1,6.962338448E0,1.229662037E1,3.189076662E0
4.225057083E1,2.116474390E0,1.628057098E1,9.289502501E-1
4.227519999E1,-4.663905144E0,1.100375080E1,4.616020679E0
4.229521770E1,-2.394201756E0,8.820239067E0,4.893748283E0
4.231527864E1,2.317587137E0,4.817133904E0,4.510675907E0
4.233552499E1,5.535394192E0,2.652775526E0,3.945644379E0
4.236037968E1,6.550535679E0,3.466804028E0,3.160346150E-1
4.238519218E1,4.730942726E0,4.232948780E0,2.059013367E0
4.240521874E1,-2.212242365E0,3.332728863E0,2.700659513E0
4.242528072E1,-9.030928612E0,1.877054095E0,-1.934514999E0
4.244762083E1,-7.096413612E0,6.081272125E0,-2.183511972E0
4.247035937E1,4.146757126E0,2.257253456E1,1.944091797E0
4.249039478E1,1.915361404E0,3.449565887E1,-6.780379295E0
4.251041666E1,6.895300746E-1,1.507389355E1,6.789956093E0
4.253554062E1,-1.072602391E0,2.376963425E1,3.093308687E0
4.256036301E1,5.841852427E-1,2.207453918E1,2.987963676E0
4.258060260E1,7.747636795E0,1.953668594E1,9.768342972E-1
4.260519270E1,4.079719543E0,1.485362720E1,9.768342972E-1
4.262522499E1,2.260126352E0,9.366117477E0,5.746083856E-1
4.265041145E1,-7.182605267E-1,3.993528366E0,1.091755986E0
4.267520624E1,-8.140285611E-1,-5.075707436E-1,3.734954596E-1
4.270035989E1,-4.989516258E0,-4.405331135E0,6.799532771E-1
4.272039062E1,-4.510675907E0,-1.087925243E1,8.619125932E-2
4.274041145E1,1.283292055E0,-1.102290440E1,-2.442085743E0
4.276059478E1,4.031835556E0,-3.533841610E0,-2.671929121E0
4.278526614E1,4.884171486E-1,9.940725327E0,4.788403511E-1
4.280535833E1,-5.870582581E0,2.961148643E1,1.414494324E1
4.283041926E1,-3.572149038E0,2.717897797E1,1.030464458E1
4.285521458E1,3.869029999E0,1.091755986E0,-1.485362720E1
4.288037395E1,-2.940079689E0,-6.090848923E0,2.365471363E0
4.290527030E1,4.050989151E0,1.896207690E0,-7.249642849E0
4.293041666E1,-7.661445439E-2,1.374271774E1,-2.949656487E0
4.295663801E1,-1.382890892E1,5.610093307E1,-8.063671112E0
4.298058645E1,6.100425720E0,1.091755962E1,6.004657745E0
4.300519947E1,8.829815865E0,1.075475407E1,2.901772499E0
4.302528854E1,5.899312973E0,1.560061836E1,-6.512228847E-1
4.304528854E1,-5.219359875E0,1.235408115E1,4.644751072E0
4.307059843E1,-3.323152065E0,9.289502144E0,6.311115742E0
4.309520937E1,1.934514999E0,6.617573261E0,5.813121796E0
4.311529791E1,7.307103634E0,2.968810081E0,-3.734954596E-1
4.313578801E1,7.354987621E0,2.738966703E0,-2.987963676E0
4.316037551E1,8.619126081E-1,5.008669853E0,2.394201756E0
4.318520312E1,-7.335834026E0,1.953668594E0,5.937620401E-1
4.321038854E1,-8.599972725E0,1.647210717E0,7.661445439E-2
4.323058801E1,-2.652775526E0,6.090848923E0,-1.618480325E0
4.325518958E1,9.490615845E0,3.090435600E1,3.064578176E-1
4.327521145E1,-1.723825216E0,2.800258255E1,-6.895300865E0
4.329531249E1,2.298433632E-1,1.566765594E1,9.662998199E0
4.332037708E1,-4.730942726E0,2.054224968E1,3.371036053E0
4.334056718E1,5.458779812E0,2.434424210E1,1.599326730E0
4.336526510E1,7.671022415E0,1.747767258E1,2.758120298E0
4.338527760E1,2.087743998E0,1.261265469E1,3.217807055E0
4.341036510E1,2.873042040E-2,7.105990410E0,1.359906554E0
4.343042083E1,-1.388636947E0,2.729389906E0,1.168370485E0
4.345504218E1,-7.852981687E-1,-5.458779931E-1,1.541865945E0
4.347521562E1,-3.418920040E0,-4.750096321E0,2.298433542E0
4.349531197E1,-2.767697096E0,-9.327810287E0,2.968810201E-1
4.352036093E1,2.911349297E0,-8.283937454E0,-1.465251446E0
4.354037499E1,4.405331135E0,-2.873041928E-1,-1.493981838E0
4.356040051E1,4.165910721E0,1.120486355E1,-1.158793569E0
4.358525312E1,-3.763684988E0,2.180638885E1,1.144428444E1
4.361037031E1,-5.171475887E0,9.040505409E0,1.058237171E1
4.363039583E1,-6.205770969E0,1.166455078E1,-1.678814316E1
4.365519947E1,-2.394201756E-1,1.024718285E1,-1.139639974E0
4.368036926E1,7.709329605E0,1.030464458E1,-9.864110947E-1
4.370042864E1,1.848323703E0,1.331176186E1,-1.050575733E1
4.372044062E1,2.106897533E-1,7.393294811E0,-8.906430602E-1
4.374529635E1,-3.840299606E0,3.491703796E1,3.007117271E0
4.377041614E1,-4.769249916E0,2.444001007E1,7.431602001E0
4.379522708E1,0.000000000E0,1.078348446E1,4.089296341E0
4.381527864E1,-1.340752989E-1,1.092713642E1,4.271255970E0
4.383556510E1,-4.472368717E0,9.902418137E0,5.171475887E0
4.386036458E1,-2.930502892E0,5.544970989E0,3.380612850E0
4.388520103E1,3.620033026E0,-1.915361285E-1,3.667917013E0
4.390522551E1,7.536946774E0,-1.312022567E0,2.394201756E-1
4.393034687E1,3.543418407E0,9.854534149E0,-2.011129379E0
4.395107083E1,1.675941229E0,7.048529625E0,5.458779931E-1
4.397521458E1,-5.295974255E0,-1.771709204E0,-1.063025594E0
4.399522760E1,-4.012681961E0,-1.896207690E0,-2.729389906E0
4.401525781E1,-4.118026733E0,7.412448406E0,-6.512228847E-1
4.403579218E1,-3.016694069E0,2.415270615E1,1.436520964E-1
4.406062603E1,-1.733402014E0,2.223734474E1,2.499546528E0
4.408521458E1,-5.027823448E0,1.923980522E1,6.981492043E0
4.410526145E1,-9.318233490E0,2.272576332E1,4.941632271E0
4.413034999E1,-1.340752989E-1,1.839704514E1,2.978386879E0
4.415059166E1,4.845864296E0,1.596453667E1,3.821146011E0
4.417522395E1,2.413355350E0,1.052491093E1,4.050989151E0
4.419530781E1,1.436521053E0,3.667917013E0,1.857900500E0
4.422035989E1,1.685518026E0,6.512228847E-1,2.997540474E0
4.424038176E1,-1.465251446E0,-1.532289028E0,2.001552582E0
4.426041718E1,-4.395754337E0,-3.390189648E0,7.661445141E-1
4.428057499E1,-2.106897593E0,-4.558559895E0,-6.991068721E-1
4.430521145E1,1.244984865E0,-2.691082716E0,-1.723825186E-1
4.432526041E1,2.059013367E0,2.327163935E0,1.312022567E0
4.434532708E1,2.135627985E0,1.209550667E1,3.744531393E0
4.437037030E1,-1.829170108E0,1.057279491E1,9.979032516E0
4.439060937E1,-4.022258818E-1,1.420240402E1,-1.168370485E0
4.441526041E1,-2.652775526E0,1.529416084E1,-7.412448406E0
4.444793645E1,-4.395754337E0,1.206677628E1,3.878606796E0
4.447040156E1,-1.723825216E0,1.316810894E1,-5.803544998E0
4.449520208E1,-1.561019540E0,1.942176437E1,1.972822189E0
4.451530989E1,-3.351882398E-1,2.063801956E1,1.781286120E0
4.453605781E1,1.647210717E0,1.676898956E1,3.457227230E0
4.456037812E1,2.001552582E0,1.483447361E1,5.075707436E0
4.458058645E1,3.639186621E-1,1.562934875E1,3.505111217E0
4.460519583E1,-2.652775526E0,8.714894295E0,7.297526836E0
4.462522031E1,-3.074155092E0,7.852981567E0,4.999093056E0
4.465036353E1,1.053448796E0,5.075707436E0,3.552995205E0
4.467038124E1,6.090848923E0,2.375048161E0,-2.499546528E0
4.469519114E1,4.050989151E0,5.257667065E0,1.015141487E0
4.471528853E1,-7.182605267E-1,2.202665567E0,2.212242365E0
4.473581093E1,-7.134721279E0,-1.723825216E0,1.149216771E0
4.476042031E1,-5.449203014E0,3.351882398E-1,-3.639186621E-1
4.478520103E1,-2.403778553E0,9.452308655E0,-1.436520964E-1
4.481038176E1,2.087743998E0,3.851791763E1,-4.290409565E0
4.483057187E1,-1.082179189E0,1.842577553E1,5.746083856E-1
4.485058385E1,-4.893748283E0,2.057098007E1,8.274360657E0
4.487521093E1,-6.301538944E0,2.336740875E1,6.703764915E0
4.489527812E1,-1.120486379E0,2.160527611E1,5.257667065E0
4.492035572E1,2.987963676E0,1.866519737E1,5.104437828E0
4.494847499E1,1.656787634E0,1.064940929E1,4.031835556E0
4.497035208E1,8.714894056E-1,4.797980309E0,8.906430602E-1
4.499039530E1,2.355894566E0,9.481038451E-1,-1.091755986E0
4.501526770E1,-6.991068721E-1,-4.750096321E0,2.212242365E0
4.503588176E1,-2.748543501E0,-7.996633530E0,1.628057122E0
4.506056041E1,4.127603531E0,-8.370129585E0,1.407790542E0
4.508519478E1,4.213795185E0,-1.043871999E0,2.873042040E-2
4.510527968E1,-9.576806426E-2,4.711789131E0,7.278373241E-1
4.513040937E1,-4.520252705E0,1.303403378E1,4.347870350E0
4.515059322E1,-6.464344501E0,1.205719948E1,7.546523571E0
4.517520520E1,-2.346317768E0,2.206496239E1,-6.014234543E0
4.519522864E1,-4.587290287E0,3.198653460E0,-4.060565948E0
4.521527447E1,-3.591302633E0,7.469909191E0,5.669469833E0
4.523586406E1,1.149216816E-1,1.392467690E1,-6.521805286E0
4.526036718E1,-3.342305660E0,1.714248466E1,-5.477933407E0
4.528519062E1,-2.547430515E0,2.800258255E1,5.343858242E0
4.530529530E1,-8.714894056E-1,2.010171700E1,3.543418407E0
4.533040156E1,-1.120486379E0,1.214339066E1,6.100425720E0
4.535056666E1,1.254561663E0,1.552400398E1,3.811569214E0
4.537519947E1,-1.762132406E0,1.296699619E1,4.156333923E0
4.540046718E1,-7.565677166E-1,7.450755596E0,4.654327869E0
4.542526614E1,1.493981838E0,2.442085743E0,5.018246651E0
4.544778593E1,3.677493811E0,1.283292055E0,6.320692301E-1
4.547037656E1,6.129156113E0,5.774814606E0,4.596867263E-1
4.549037656E1,4.338293552E0,5.966350555E0,1.714248419E0
4.551056301E1,-3.256114423E-1,3.955221176E0,1.139639974E0
4.553551718E1,-6.636727333E0,-1.857900500E0,-1.493981838E0
4.556037499E1,-5.027823448E0,1.235408068E0,-3.533841610E0
4.558522343E1,-3.438073635E0,1.808101082E1,5.650315881E-1
4.561036926E1,-2.020706177E0,2.712151718E1,1.398213744E0
4.563038853E1,-1.589749932E0,2.053267288E1,5.410895824E0
4.565520103E1,-7.498639584E0,2.709278679E1,5.688623428E0
4.568035208E1,-1.340752959E0,2.325248718E1,3.466804028E0
4.570066718E1,2.173935175E0,2.070505714E1,4.558559895E0
4.572521041E1,4.884171486E-1,1.282334423E1,5.726930618E0
4.574536301E1,1.292868972E0,5.410895824E0,3.840299606E0
4.577035937E1,2.394201756E0,-1.254561663E0,3.055001259E0
4.579038801E1,1.905784607E0,-4.606443882E0,2.585737944E0
4.581528228E1,-1.187524080E0,-6.694188118E0,-1.379060149E0
4.583559635E1,-2.681505978E-1,-1.005564690E1,-2.221819162E0
4.586036770E1,3.112462282E0,-2.183511972E0,-3.351882458E0
4.588519947E1,1.522712231E0,2.288856745E0,-2.758120298E0
4.590534010E1,-3.878606796E0,1.030464458E1,3.888183594E0
4.593034791E1,-8.609549522E0,2.298433685E1,1.444182491E1
4.595663072E1,-5.726930618E0,1.771709251E1,8.523358107E-1
4.598038281E1,1.944091797E0,-9.193734527E-1,-7.153874874E0
4.600521093E1,1.685518026E0,-3.313575268E0,2.068590164E0
4.602526458E1,8.350975990E0,8.916007042E0,-5.152322292E0
4.604531301E1,6.224924564E0,1.731486702E1,-7.479485989E0
4.607056353E1,-9.289502144E0,3.860410690E1,-3.189076662E0
4.609525780E1,-5.008669853E0,1.375229454E1,9.040505409E0
4.611528020E1,-2.403778553E0,8.791508675E0,6.272808552E0
4.613580624E1,1.139639974E0,1.376187134E1,7.374141216E-1
4.616035833E1,-2.240972757E0,1.470039845E1,2.279279947E0
4.618058176E1,-3.514688015E0,9.193734169E0,6.358999729E0
4.620528541E1,-2.087743998E0,5.382165432E0,6.426037312E0
4.623036874E1,2.719813108E0,1.637633920E0,-3.160346150E-1
4.625039843E1,4.558559895E0,1.637633920E0,-1.656787634E0
4.627519687E1,5.612008572E0,6.694188118E0,1.302445769E0
4.629526458E1,1.580173135E0,5.659893036E0,4.683058739E0
4.631527447E1,-4.932055473E0,-5.937620401E-1,2.576161146E0
4.633553020E1,-5.152322292E0,-5.937620401E-1,-2.719813108E0
4.636039270E1,-6.033388376E-1,6.703764915E0,5.267243981E-1
4.638056249E1,2.710236311E0,3.846045685E1,-1.877054095E0
4.640521874E1,-5.813121796E0,2.740882111E1,-3.438073635E0
4.643060312E1,-4.395754337E0,2.116474342E1,5.832275391E0
4.645553072E1,-1.704671621E0,2.116474342E1,3.955221176E0
4.648037395E1,4.299986362E0,1.902911568E1,1.656787634E0
4.650039218E1,4.558559895E0,1.581130791E1,1.532289028E0
4.652043072E1,1.063025594E0,1.031422138E1,1.781286120E0
4.654527968E1,-7.852981687E-1,3.485957623E0,2.662352324E0
4.657041041E1,-1.551442742E0,-1.675941229E0,2.853888512E0
4.659523906E1,-5.276820660E0,-7.086836815E0,3.466804028E0
4.661526562E1,-3.696647406E0,-1.529416084E1,2.585737705E-1
4.663575989E1,2.691082716E0,-1.239238834E1,-2.873042107E0
4.666038228E1,5.813121796E0,-1.781286120E0,-4.328716755E0
4.668059583E1,1.561019540E0,1.073560047E1,-1.915361360E-2
4.670520624E1,-4.146757126E0,3.653551865E1,1.069729328E1
4.672530468E1,-6.703764915E0,1.536119843E1,6.205770969E0
4.674537239E1,-3.524264812E0,2.022621536E1,-8.236053467E0
4.677049583E1,-4.338293552E0,-4.970362663E0,1.742978811E0
4.679522447E1,1.034295082E0,-2.231395960E0,2.681505919E0
4.681532708E1,8.169015884E0,6.014234543E0,-7.201758862E0
4.683552083E1,-5.075707436E-1,1.077390766E1,-4.989516258E0
4.686055572E1,-6.435614109E0,4.425442505E1,-2.700659513E0
4.688522551E1,1.982398987E0,1.977610588E1,5.822698593E0
4.691037708E1,5.171475887E0,1.034295177E1,3.227383852E0
4.694880937E1,-1.407790542E0,1.502600956E1,-2.489969730E-1
4.697061978E1,-7.326257229E0,7.651868820E0,7.728483200E0
4.699532447E1,-2.183511972E0,6.397306919E0,4.414907932E0
4.702036770E1,4.328716755E0,2.011129379E0,1.570596337E0
4.704037708E1,7.383718014E0,4.118026793E-1,-2.269703150E0
4.706048958E1,5.631162167E0,5.008669853E0,1.187524080E0
4.708518749E1,-7.469909191E-1,5.755661011E0,3.246537447E0
4.710528280E1,-6.991068840E0,2.585737944E0,4.596867263E-1
4.713040103E1,-4.721365929E0,1.312022567E0,-4.903325081E0
4.715521093E1,1.608903527E0,2.178723526E1,1.561019540E0
4.718056666E1,-2.825158119E0,2.477519989E1,-5.765237808E0
4.720058072E1,9.576806426E-2,1.571553993E1,9.758766174E0
4.722526197E1,-2.719813108E0,2.776316261E1,3.045424461E0
4.725037968E1,0.000000000E0,2.546472931E1,-5.171475410E-1
4.727039478E1,3.313575268E0,2.081997871E1,2.509123325E0
4.729060624E1,3.792415380E0,1.629014778E1,5.114014626E0
4.731525520E1,1.915361360E-2,8.896853447E0,4.309563160E0
4.733589218E1,-6.512228847E-1,5.688623428E0,1.436521053E0
4.736064531E1,-1.532289088E-1,7.086837292E-1,9.193734527E-1
4.738520676E1,-3.035847664E0,-4.683058739E0,1.120486379E0
4.741042499E1,-2.269703150E0,-1.248815632E1,-1.800439715E0
4.744709478E1,7.287950039E0,-6.971915245E0,-2.892195702E0
4.747037291E1,1.465251446E0,4.194641590E0,9.672574997E-1
4.749037499E1,-4.644751072E0,2.586695480E1,7.096413612E0
4.751526770E1,-8.360552788E0,2.031240654E1,6.703764915E0
4.753579791E1,-5.544970989E0,1.947922516E1,-6.320692301E-1
4.756037864E1,-1.493981838E0,1.723825216E0,-5.813121796E0
4.758046770E1,-1.283292055E0,-6.502651691E0,1.063025594E0
4.760520520E1,1.032379818E1,3.754108191E0,-5.640739441E0
4.762520624E1,3.361459255E0,5.257667065E0,-8.580819130E0
4.764537603E1,-9.069235802E0,3.914040756E1,-1.053448796E0
4.767038280E1,-3.256114423E-1,3.006159592E1,1.108994198E1
4.769061978E1,4.165910721E0,1.073560047E1,5.171475887E0
4.771526249E1,5.698200226E0,1.485362720E1,3.792415380E0
4.773588541E1,-1.244984865E-1,1.692221832E1,3.160346150E-1
4.776057968E1,-6.358999729E0,7.431602001E0,7.067683220E0
4.778526510E1,-4.118026793E-1,4.529829502E0,2.949656487E0
4.781038124E1,4.874594688E0,6.607996821E-1,5.324704647E0
4.783039687E1,8.695740700E0,4.213795066E-1,1.465251446E0
4.785519843E1,6.330269337E0,7.412448406E0,-6.991068721E-1
4.788056301E1,-3.160346150E-1,4.769249916E0,3.351882458E0
4.790520624E1,-9.586383820E0,1.838746905E0,-2.432508945E0
4.792522968E1,-7.489062786E0,-2.298433632E-1,-5.650316238E0
4.795006770E1,-2.049436569E0,6.924031258E0,-1.340752989E-1
4.797038958E1,3.782838583E0,3.772304153E1,-3.275267839E0
4.799062812E1,-2.269703150E0,2.177765846E1,-2.528276920E0
4.801522916E1,-8.236053586E-1,2.810792732E1,6.751648903E0
4.803586822E1,-2.873042107E0,2.844311714E1,2.834734917E0
