"Time (s)","Gyroscope x (rad/s)","Gyroscope y (rad/s)","Gyroscope z (rad/s)"
1.620135410E-1,-1.270599663E-1,6.597344577E-2,2.565634064E-2
1.857854160E-1,-1.270599663E-1,6.597344577E-2,2.565634064E-2
2.117781240E-1,-6.719517708E-2,-7.672467232E-1,-6.768386960E-1
2.326744790E-1,-3.811798990E-1,-3.286454976E-1,-9.651670605E-2
2.555666660E-1,4.398229718E-1,-3.677408695E-1,9.529497474E-2
2.817630200E-1,6.621779203E-1,7.867944241E-1,7.489207983E-1
3.019192700E-1,9.004153609E-1,5.363397002E-1,5.803219676E-1
3.255463540E-1,3.176499158E-2,-1.062905490E-1,-1.087340117E-1
3.457427080E-1,3.066543341E-1,1.589471340E0,-1.319468915E-1
3.657906240E-1,1.185078546E-1,4.153883457E-1,-4.263839424E-1
3.921302080E-1,3.872885704E-1,2.133141518E0,3.139847219E-1
4.157536450E-1,3.139847219E-1,2.537534237E0,1.204626203E0
4.438921870E-1,-5.155702829E-1,1.161865711E0,1.235169530E0
4.657151040E-1,-5.717698336E-1,9.150761366E-1,6.707300544E-1
4.940406240E-1,-3.347541392E-1,5.546656251E-1,6.829473376E-1
5.147989580E-1,9.040805697E-2,-8.185594529E-2,6.695082784E-1
5.349208330E-1,3.139847219E-1,2.846632004E-1,5.998696685E-1
5.555270830E-1,-8.552113175E-2,3.689626157E-1,4.703662395E-1
5.840536450E-1,-1.380555481E-1,-6.352998316E-2,6.475171447E-2
6.055151040E-1,3.506366313E-1,-3.115412593E-1,-4.569272101E-1
6.255385410E-1,7.977899909E-1,-4.373795092E-1,-9.590584040E-1
6.542776040E-1,8.759807348E-1,-7.916813493E-1,-1.479515553E0
6.755348950E-1,7.428121567E-1,-2.076941729E-1,-9.566149712E-1
6.955374990E-1,9.407324344E-2,-4.276056588E-1,4.276056588E-2
7.157203120E-1,-5.155702829E-1,-1.065348983E0,3.164281845E-1
7.358979160E-1,-2.663372457E-1,-7.293730974E-1,1.771509200E-1
7.638494790E-1,2.834414840E-1,-4.105014503E-1,-3.787364438E-2
7.838588540E-1,6.462954283E-1,-3.310889602E-1,1.160643920E-1
8.039239580E-1,7.880161405E-1,-1.710422710E-2,4.386012256E-1
8.255130200E-1,2.125810981E-1,5.583308339E-1,2.895501256E-1
8.455307290E-1,-6.218608022E-1,9.101892114E-1,-3.066543341E-1
8.657442700E-1,-5.705481172E-1,1.065348983E0,-3.042109013E-1
8.940703120E-1,-6.352998316E-2,-7.330382708E-3,6.829473376E-1
9.157234370E-1,1.759291887E-1,4.153883457E-2,9.688322544E-1
9.472468740E-1,8.161159754E-1,-9.248499870E-1,9.089674950E-1
9.739192700E-1,4.007275999E-1,-1.036027431E0,3.701843321E-1
9.940473950E-1,-4.141666293E-1,-7.513642311E-1,-6.108652428E-2
1.015767708E0,-1.247386813E0,-6.853907704E-1,-3.200933933E-1
1.036208333E0,-1.728748560E0,-6.426302195E-1,-1.453859210E-1
1.063799999E0,-9.285151362E-1,5.143485069E-1,7.941248268E-2
1.085549999E0,9.260717034E-1,1.403768301E0,3.323106766E-1
1.113773958E0,1.832595706E0,5.375614017E-2,5.461135507E-1
1.135431770E0,7.147123218E-1,-8.246680498E-1,6.181955934E-1
1.155565624E0,-3.714060783E-1,-6.072000265E-1,1.001819015E0
1.183787499E0,-8.417723179E-1,-4.153883457E-2,4.459316134E-1
1.203881770E0,-1.032362223E0,2.076941729E-2,-2.443460934E-2
1.225540624E0,-1.110553026E0,-7.208209485E-2,-3.494149148E-1
1.245565624E0,-9.346238375E-1,2.675589621E-1,-6.059783101E-1
1.265781770E0,-7.550294399E-1,2.565633953E-1,-8.210029006E-1
1.294021874E0,-9.834930301E-1,-3.640756905E-1,-9.981538057E-1
1.315751041E0,-1.141096234E0,2.748893499E-1,-1.185078502E0
1.336227083E0,-1.459967971E0,4.105014503E-1,-1.453859210E0
1.363802083E0,-1.044579506E0,-2.687807009E-2,-6.707300544E-1
1.385774999E0,-4.239404798E-1,-2.565634064E-2,2.284636050E-1
1.413805208E0,-1.404990107E-1,-1.282816976E-1,4.031710699E-2
1.446067708E0,-2.944370508E-1,-2.492330223E-1,-2.333505154E-1
1.473843228E0,-1.600466967E-1,-1.991420686E-1,-2.590068579E-1
1.494497916E0,-3.665191308E-2,-4.923573732E-1,-1.930334121E-1
1.515761458E0,2.932153083E-2,-5.424483418E-1,-9.285151958E-2
1.535865624E0,-1.087340117E-1,-2.822197378E-1,-7.208209485E-2
1.564474478E0,-5.522221923E-1,-9.969320893E-1,-4.398229718E-1
1.585538020E0,1.148426607E-1,-1.335351348E0,-5.424483418E-1
1.605565103E0,1.062905490E-1,-6.511823535E-1,-2.895501256E-1
1.625758333E0,-9.773843922E-3,-5.326744914E-1,-2.321287841E-1
1.653770833E0,5.986479297E-2,-5.363397002E-1,-8.063421398E-2
1.673906770E0,1.160643920E-1,-6.939429045E-1,4.886921868E-2
1.694389062E0,7.330382708E-3,-9.871582389E-1,2.309070528E-1
1.715782291E0,-2.761110961E-1,-4.288274050E-1,4.691444933E-1
1.735872395E0,-3.286454976E-1,7.122688890E-1,9.028587937E-1
1.763760416E0,1.551597714E-1,1.203404546E0,4.398229718E-1
1.783769270E0,1.000597239E0,2.516764700E-1,1.612684280E-1
1.803819270E0,1.345125198E0,-2.492330223E-1,1.270599663E-1
1.825556249E0,1.307251573E0,1.209513173E-1,-2.052507252E-1
1.845567708E0,9.541714787E-1,6.352998614E-1,-3.420845270E-1
1.865795312E0,1.284038782E0,1.649336070E-1,-2.052507252E-1
1.894032291E0,1.171639562E0,-8.491026759E-1,-7.208209485E-2
1.914041145E0,8.906415105E-1,-1.029918790E0,-1.417207420E-1
1.947268228E0,9.773843884E-1,-5.338962078E-1,9.407324344E-2
1.973819270E0,5.583308339E-1,-2.553416789E-1,1.014036313E-1
1.994398437E0,4.654793143E-1,1.661553383E-1,-8.552113175E-2
2.015776041E0,7.342600226E-1,1.918116808E-1,-4.031710699E-2
2.036105208E0,1.084896684E0,-1.832595766E-1,2.577851415E-1
2.063978645E0,1.464854836E0,-6.279694438E-1,3.848451078E-1
2.085563020E0,1.556484580E0,-7.024950385E-1,9.162978828E-2
2.105753645E0,1.370781541E0,-5.546656251E-1,-5.461135507E-1
2.135046874E0,1.573588848E0,8.552113548E-3,-1.221730490E-3
2.155542708E0,1.770287395E0,-4.056145251E-1,9.529497474E-2
2.183819270E0,2.048841953E0,-7.012732625E-1,1.404990107E-1
2.203854166E0,2.092824221E0,-6.096435189E-1,9.285151958E-2
2.223957812E0,1.901012659E0,-3.848451078E-1,5.253440887E-2
2.244014062E0,1.479515553E0,-3.298672140E-1,2.480112910E-1
2.265743749E0,8.539896011E-1,-2.309070528E-1,4.105014503E-1
2.294293749E0,-6.316346526E-1,1.576032341E-1,4.630358517E-1
2.315789583E0,-2.247984171E0,4.886921868E-2,4.410446882E-1
2.336471353E0,-3.602883101E0,2.260201424E-1,8.796459436E-2
2.363964062E0,-3.652974129E0,1.821600080E0,-6.646213531E-1
2.385553124E0,-2.751337051E0,8.784242272E-1,-4.324925840E-1
2.413789062E0,-2.950479031E0,4.092797041E-1,3.200933933E-1
2.445933332E0,-2.957809448E0,-4.386012256E-1,-3.689626157E-1
2.474051041E0,-3.174055815E0,-1.324355841E0,-5.277875662E-1
2.494398957E0,-2.533869028E0,-1.609019041E0,-3.640756905E-1
2.515739062E0,-1.554041147E0,-1.128878951E0,2.333505154E-1
2.535853124E0,-7.831292152E-1,-3.787364438E-2,3.958406746E-1
2.563989062E0,2.932153083E-2,1.170417786E0,7.330382708E-3
2.585759374E0,9.309586287E-1,2.094046116E0,-7.330382708E-3
2.613953645E0,1.848478198E0,2.158797741E0,1.221730486E-1
2.635451041E0,2.007303238E0,1.249830246E0,-2.932153083E-2
2.655536457E0,1.589471340E0,-5.082398653E-1,2.431243658E-1
2.675558332E0,5.351179242E-1,-1.959655643E0,7.464773059E-1
2.703794270E0,-3.078760803E-1,-1.566258430E0,8.173376918E-1
2.725549999E0,-1.963320851E0,7.489207983E-1,4.886921868E-2
2.745746874E0,-5.079955101E0,1.088561893E0,-2.333505154E-1
2.765788541E0,-1.431868076E0,2.443460971E-1,-2.455678284E-1
2.794003124E0,3.409849644E0,-1.087340117E-1,-2.651154995E-1
2.815761457E0,2.335948706E0,1.224173903E0,-1.004262447E0
2.835866666E0,1.018923163E0,-5.766567588E-1,1.710422710E-2
2.863804166E0,2.210110426E0,6.450737119E-1,4.227187335E-1
2.885545312E0,2.386039495E0,9.053022861E-1,-2.736676335E-1
2.905573957E0,3.071430445E0,-1.343903542E-1,4.996877611E-1
2.947511978E0,4.068362236E0,-7.501425147E-1,8.820893764E-1
2.974089062E0,2.680476665E0,1.137431026E0,-7.208209485E-2
2.995569791E0,1.304808140E0,1.631010175E0,-6.145304441E-1
3.015765103E0,4.459316134E-1,9.382889867E-1,-9.724974632E-1
3.036329687E0,-1.034805655E0,-4.801400900E-1,-1.869247556E-1
3.063794270E0,-2.930931330E0,1.832595654E-2,4.471533597E-1
3.083938020E0,-2.565634012E0,1.138652802E0,1.307251602E-1
3.104118228E0,-2.924822807E0,9.896016717E-1,6.230825558E-2
3.125562499E0,-3.128851652E0,1.896125674E0,-1.661553383E-1
3.145751041E0,-2.662150621E0,5.852088928E-1,-3.249803185E-1
3.174306770E0,-3.738495350E0,1.197295904E0,-7.867944241E-1
3.195544791E0,-3.446501732E0,-2.002416134E0,-1.058018565E0
3.215795832E0,-1.831373930E0,-4.743979454E0,3.213151097E-1
3.236195832E0,-9.969320893E-1,-2.618168354E0,4.300491214E-1
3.263760416E0,-5.681046844E-1,-8.955284357E-1,2.895501256E-1
3.283821353E0,-3.811798990E-1,3.628539443E-1,2.797762752E-1
3.303965624E0,7.086037099E-2,3.555235565E-1,3.946189284E-1
3.325560937E0,6.072000265E-1,1.109331250E0,3.848451078E-1
3.345759374E0,1.717753053E0,9.822713137E-1,3.396410644E-1
3.365881770E0,2.658485413E0,1.282816976E-1,-1.282816976E-1
3.394095832E0,2.482556343E0,-1.104444385E0,-4.007275999E-1
3.415735937E0,1.409876943E0,-1.143539667E0,5.742133036E-2
3.446034374E0,1.368338168E-1,8.100072742E-1,4.214970171E-1
3.473803124E0,-2.516764700E-1,-4.886921868E-2,8.014551997E-1
3.493990624E0,-1.982868552E0,-2.144136906E0,1.144761443E0
3.515776041E0,1.209513173E-1,-1.403768301E0,-6.560692787E-1
3.535831249E0,-4.166100919E-1,3.859446526E0,3.995058537E-1
3.563795311E0,7.415903807E-1,1.343903504E-2,1.022588372E0
3.583840624E0,3.075095654E0,-4.373795092E-1,5.632177591E-1
3.603981249E0,1.657888293E0,-1.292590857E0,-2.553416729E0
3.625553645E0,9.737191796E-1,1.969429493E0,-1.589471340E0
3.653842186E0,2.711019993E0,3.995058537E-1,4.398229718E-1
3.675543749E0,2.769663095E0,7.305948138E-1,8.148941994E-1
3.695628645E0,3.353650093E0,1.197295859E-1,9.529497474E-2
3.715762499E0,2.258979559E0,6.267477274E-1,-6.829473376E-1
3.736251041E0,1.193630695E0,6.731734872E-1,-6.377432942E-1
3.763811457E0,7.098253965E-1,6.255260110E-1,-1.685988009E-1
3.785746874E0,-7.086036801E-1,-1.032362223E0,3.078760803E-1
3.813771353E0,-1.426981211E0,4.996877611E-1,6.731734872E-1
3.834901561E0,-2.019520521E0,2.048841953E0,7.293730974E-1
3.855563541E0,-2.056172371E0,-4.948008358E-1,9.529497474E-2
3.883792707E0,-1.987755537E0,9.798278213E-1,8.185594529E-2
3.903796874E0,-1.903456092E0,3.872885704E-1,-3.652974069E-1
3.923843228E0,-3.010343790E0,-1.295034289E-1,-7.977899909E-1
3.948457291E0,-3.852116108E0,-1.690874934E0,5.277875662E-1
3.974460936E0,-2.933374882E0,-1.565036774E0,4.483750761E-1
3.995614582E0,-2.312735796E0,-5.387831330E-1,4.422664344E-1
4.015872395E0,-1.907121301E0,-1.246165112E-1,2.883283794E-1
4.043964582E0,-8.662068844E-1,8.869763017E-1,7.379252315E-1
4.065735936E0,-3.433062732E-1,1.445307136E0,8.662068844E-1
4.094096874E0,5.815436840E-1,1.340238333E0,6.365215778E-1
4.115791666E0,1.803274155E0,7.599163651E-1,-7.696902007E-2
4.135857811E0,2.873510122E0,-2.296853215E-1,-4.337143302E-1
4.163835936E0,2.943148613E0,-9.676105380E-1,1.172861233E-1
4.185545832E0,2.227214575E0,-6.878342628E-1,8.857545853E-1
4.213816145E0,5.204572082E-1,6.914994717E-1,1.200961113E0
4.234859374E0,-2.283414364E0,1.152091861E0,4.923573732E-1
4.255560936E0,-4.816061497E0,1.665218592E0,-3.677408695E-1
4.283805728E0,6.108652335E-3,3.995058537E-1,-1.259604096E0
4.305558332E0,4.312708676E-1,8.943067193E-1,4.605923891E-1
4.325565624E0,1.662775159E0,-9.101892114E-1,1.037249207E0
4.345743228E0,3.291341782E0,-2.913827181E0,1.466076612E0
4.365768749E0,4.359134197E0,-3.771481991E0,-1.897347450E0
4.394025520E0,2.340835571E0,-1.169196010E0,-3.323106766E0
4.415785416E0,3.337767601E0,1.773952603E0,2.241875410E0
4.446600520E0,3.806912184E0,1.078788042E0,4.996877611E-1
4.473788020E0,3.127629995E0,1.820378453E-1,-9.749408960E-1
4.494032291E0,2.091602564E0,-3.677408695E-1,-8.649851680E-1
4.515736978E0,1.937664509E0,-1.165530920E0,-2.431243658E-1
4.536184374E0,1.255938888E0,-1.698205352E0,5.497787148E-2
4.564333853E0,3.958406746E-1,-2.592512131E0,5.045746565E-1
4.585552082E0,-3.494149148E-1,2.040289938E-1,7.012732625E-1
4.613821874E0,-2.131919622E0,1.736078978E0,1.369559884E0
4.634942707E0,-2.437352180E0,1.666440368E0,7.782422900E-1
4.655536457E0,-2.625498772E0,1.722639918E0,-8.674286306E-2
4.675561457E0,-2.940705299E0,6.145304441E-1,-3.652974069E-1
4.703784374E0,-3.701843262E0,8.503243923E-1,-6.927211881E-1
4.725552603E0,-4.024380207E0,-1.849699974E0,-5.925392509E-1
4.745771874E0,-3.938858986E0,-1.828930497E0,-4.447098970E-1
4.773995832E0,-3.475823164E0,-1.122770309E0,1.832595766E-1
4.794059374E0,-2.791654110E0,1.001819000E-1,6.939429045E-1
4.815755728E0,-2.243097067E0,1.644449234E0,5.497786999E-1
4.835900520E0,-1.594358325E0,2.084272146E0,4.068362415E-1
4.863796353E0,-5.693264008E-1,1.810604572E0,3.359758854E-1
4.883816145E0,5.106833577E-1,1.249830246E0,2.602286041E-1
4.903863540E0,1.348790407E0,8.991936445E-1,7.330382708E-3
4.923934895E0,1.985311985E0,2.443460934E-2,-2.015855312E-1
4.947167707E0,2.116037130E0,-2.382374406E-1,1.527163088E-1
4.973860936E0,2.339613914E0,-1.003040671E0,3.750712574E-1
4.994895832E0,2.349387646E0,-7.819074988E-1,-1.343903504E-2
5.015784374E0,-8.491026759E-1,4.007275999E-1,-2.431243658E-1
5.035867186E0,-3.568674803E0,9.566149712E-1,-4.923573732E-1
5.064108332E0,-2.828305960E0,3.323106766E-1,8.918632567E-2
5.085543749E0,9.480628371E-1,-2.476447582E0,-6.059783101E-1
5.105758853E0,-5.742133036E-2,6.817256212E-1,-1.844813079E-1
5.135466665E0,2.019520521E0,-1.953547001E0,7.660250068E-1
5.155566145E0,4.152661800E0,-2.923600912E0,4.740314186E-1
5.183759895E0,3.121521473E0,-1.491732955E0,-3.754377842E0
5.204403124E0,2.502104044E0,2.109928608E0,-1.711644411E0
5.225747915E0,4.258952618E0,5.937610269E-1,2.322509527E0
5.253784895E0,4.019493103E0,8.478809595E-1,5.448917747E-1
5.273982290E0,2.932153225E0,3.310889602E-1,-9.431759119E-1
5.294130207E0,1.690874934E0,-7.855727077E-1,-1.143539667E0
5.315781249E0,1.646892667E0,-1.351233959E0,-3.017674387E-1
5.335909895E0,1.296256065E0,-1.064127207E0,2.101376355E-1
5.363791665E0,2.321287990E-2,-1.386664033E0,4.569272101E-1
5.383796874E0,-7.513642311E-1,8.356636167E-1,8.002334833E-1
5.403810415E0,-1.637118816E0,1.703092337E0,1.535715222E0
5.425548957E0,-2.062281132E0,1.433089852E0,1.011592865E0
5.446516665E0,-2.430022001E0,1.869247675E0,1.820378453E-1
5.474061457E0,-2.747671843E0,5.754350424E-1,-6.682865620E-1
5.494507811E0,-2.849075556E0,-2.809980139E-2,-6.401867867E-1
5.515757290E0,-3.747047424E0,-2.700024247E-1,-1.062905550E0
5.535839582E0,-4.894252300E0,-1.745852828E0,-5.045746565E-1
5.563784374E0,-3.753155947E0,-1.778839588E0,1.624901593E-1
5.583784895E0,-2.916270733E0,-1.056796908E0,-3.054326214E-2
5.605572915E0,-2.251649141E0,1.232726097E0,6.279694438E-1
5.635360936E0,-1.340238333E0,2.184454203E0,4.899139106E-1
5.655559894E0,-7.159340382E-1,2.235766649E0,2.809980214E-1
5.683777082E0,5.412266254E-1,1.615127683E0,8.918632567E-2
5.703794269E0,1.384220600E0,7.195992470E-1,8.552113548E-3
5.723853124E0,2.136806488E0,-4.129449129E-1,1.918116808E-1
5.744390624E0,2.400700331E0,-1.123992085E0,5.827654600E-1
5.765773957E0,2.271196842E0,-1.759291887E0,1.138652802E0
5.793979165E0,2.985909224E0,8.552113175E-2,5.204572082E-1
5.815741144E0,-7.855727077E-1,1.502728462E0,-1.295034289E-1
5.836234374E0,-3.638313293E0,1.451415777E0,-8.295549750E-1
5.863832811E0,-4.021936893E0,2.447126150E0,-7.452555895E-1
5.885565624E0,-4.398229718E-1,-1.282817006E0,-7.232644558E-1
5.913797915E0,1.000597239E0,-1.285260439E0,2.003637999E-1
5.947683332E0,3.699399948E0,-3.569896460E0,1.899790883E0
5.973993228E0,3.863111734E0,-3.182607889E0,-2.753780365E0
5.994073957E0,2.193006277E0,5.009095073E-1,-5.277875423E0
6.015747394E0,3.765373230E0,8.258898258E-1,2.447126150E0
6.036154686E0,4.776966095E0,9.749408960E-1,1.951103568E0
6.063770832E0,4.302934647E0,2.858849168E-1,-5.839871764E-1
6.085561978E0,2.574186087E0,-1.189965487E0,-1.299921274E0
6.114408332E0,2.444682598E0,-1.881464958E0,-6.267477274E-1
6.135374999E0,1.153313518E0,-1.448972344E0,1.466076542E-2
6.155542186E0,-1.099557430E-2,-1.404990107E-1,3.885102868E-1
6.175568749E0,-9.578366876E-1,1.690874934E0,7.440338731E-1
6.203815624E0,-1.811826348E0,3.689626157E-1,1.600466967E0
6.225566144E0,-2.665815830E0,2.161241293E0,1.314581990E0
6.245651040E0,-3.233920574E0,3.280346394E0,4.605923891E-1
6.265743749E0,-3.414736748E0,2.094046116E0,-4.190535545E-1
6.294012499E0,-2.649933338E0,-3.665191308E-2,-7.574728727E-1
6.314051040E0,-3.282789707E0,4.495968223E-1,-1.751961470E0
6.334978644E0,-4.736649036E0,-1.409876943E0,-1.381777167E0
6.355559894E0,-4.635245323E0,-1.627344966E0,1.893682182E-1
6.383772394E0,-3.051882744E0,-9.321803451E-1,1.185078546E-1
6.403774999E0,-2.245540619E0,4.019493163E-1,5.485569835E-1
6.423810415E0,-1.514945745E0,1.627344966E0,7.061601877E-1
6.446181249E0,-7.049384713E-1,2.091602564E0,7.977899909E-1
6.473856769E0,1.282816976E-1,1.715309620E0,7.672467232E-1
6.494502082E0,8.918632269E-1,1.132544160E0,2.724458873E-1
6.515764061E0,1.642005801E0,3.042109013E-1,6.719517708E-2
6.536255728E0,1.937664509E0,2.638937831E-1,5.400048494E-1
6.563779165E0,2.679255009E0,-5.925392509E-1,4.178318083E-1
6.585560415E0,2.422691584E0,-9.737191796E-1,-4.153883457E-2
6.613830207E0,-2.737897873E0,-2.125810981E-1,-4.129449129E-1
6.635378644E0,-5.437922478E0,1.409876943E0,-8.405505419E-1
6.655536978E0,3.090977967E-1,-1.442863703E0,-6.792821288E-1
6.675622915E0,5.607742667E-1,-2.993239760E-1,3.286454976E-1
6.703771353E0,2.217440844E0,-2.208888769E0,8.674286604E-1
6.723790624E0,4.061032295E0,-3.733608246E0,9.016370773E-1
6.744107290E0,4.257730484E0,-1.679879427E0,-1.028697014E0
6.765779165E0,2.805093050E0,1.043357849E0,-5.731137753E0
6.794487498E0,3.958406687E0,-6.597344577E-2,2.538755894E0
6.815864582E0,4.995656013E0,-3.543018401E-1,1.516167521E0
6.836266665E0,4.037819386E0,-4.202752709E-1,-5.082398653E-1
6.863986978E0,2.210110426E0,-1.747074604E0,-1.280373573E0
6.885544790E0,2.229658127E0,-2.091602564E0,-8.148941994E-1
6.905766144E0,1.583362699E0,-1.998751044E0,-2.150245607E-1
6.947483853E0,3.176499158E-2,4.752531648E-1,1.600466967E-1
6.973949998E0,-1.299921274E0,1.894904017E0,1.784948230E0
6.994020311E0,-2.301740170E0,1.389107585E0,1.825265288E0
7.014091665E0,-2.367713690E0,2.693915606E0,1.227839112E0
7.035515623E0,-3.215594530E0,3.964515448E0,-7.941248268E-2
7.055540623E0,-3.083647728E0,1.761735320E0,-5.057964325E-1
7.075565103E0,-2.713463306E0,1.336573124E0,-9.285151362E-1
7.095676561E0,-3.651752472E0,-7.733553648E-1,-1.681101084E0
7.115770832E0,-5.297423363E0,-2.350609541E0,-4.899139106E-1
7.136250519E0,-4.030488968E0,-2.052507162E0,6.841690838E-2
7.163979686E0,-2.883283854E0,-1.240056396E0,1.466076523E-1
7.185559894E0,-2.269975185E0,1.391551018E0,4.618141055E-1
7.214421353E0,-1.337794900E0,2.422691584E0,5.778785348E-1
7.235454165E0,-5.400048494E-1,1.896125674E0,4.825835228E-1
7.255544269E0,1.123992056E-1,1.284038782E0,2.614503205E-1
7.283802082E0,1.281595230E0,6.597344577E-2,-5.864306167E-2
7.303973957E0,1.775174379E0,-1.251052022E0,3.799581826E-1
7.325559373E0,4.345695496E0,-1.086118340E0,3.481931984E-1
7.345758332E0,4.145331383E0,-7.293730974E-1,2.565634064E-2
7.373964582E0,-2.635272741E0,-3.164281845E-1,4.251621962E-1
7.393995311E0,-4.605923653E0,9.492845535E-1,-7.586946487E-1
7.415794269E0,-2.873510122E0,2.999348402E0,-4.031710625E-1
7.446044790E0,-7.330383062E-1,-4.346917152E0,-3.591887653E-1
7.473843748E0,6.805038452E-1,-4.593706429E-1,7.794640660E-1
7.494041665E0,2.895501137E0,-2.028072596E0,1.122770309E0
7.515756769E0,3.863111734E0,-2.643824816E0,4.581489265E-1
7.536340103E0,4.414112091E0,-1.841147780E0,-4.946786880E0
7.563784894E0,2.641381264E0,1.072679400E0,-6.560692787E-1
7.584386457E0,4.915021896E0,3.921754956E-1,2.576629639E0
7.605563540E0,4.620584488E0,6.108652353E-1,3.750712574E-1
7.625794269E0,2.900388241E0,-6.976081133E-1,-1.268156171E0
7.653935936E0,2.803871393E0,-2.078163624E0,-1.133765936E0
7.674101561E0,2.459343433E0,-2.608394623E0,-6.609562039E-1
7.695586457E0,8.967501521E-1,-1.937664509E0,-1.551597714E-1
7.715789061E0,-3.543018550E-2,1.270599663E-1,3.775147200E-1
7.736134373E0,-9.822713137E-1,2.774549961E0,1.251052022E0
7.763799478E0,-2.434908867E0,1.009149313E0,1.860695481E0
7.785546353E0,-2.478891134E0,2.258979559E0,1.076344490E0
7.805566144E0,-2.995683193E0,3.616322279E0,5.864306167E-2
7.825568748E0,-3.447723389E0,1.988977194E0,-6.438519359E-1
7.854081769E0,-2.862514496E0,7.049384713E-1,-9.969320893E-1
7.875549477E0,-4.393342972E0,-1.505171895E0,-1.089783549E0
7.895565102E0,-5.337740421E0,-1.688431501E0,-3.506366313E-1
7.915762498E0,-3.661526203E0,-1.722639918E0,-3.860668242E-1
7.947443227E0,-2.828305960E0,5.962044597E-1,3.543018401E-1
7.974013019E0,-2.213775635E0,1.976759911E0,2.919935882E-1
7.995556248E0,-1.332907915E0,1.728748560E0,3.506366313E-1
8.015771352E0,-3.665191531E-1,9.883799553E-1,4.520402849E-1
8.036169790E0,5.375614166E-1,7.684684396E-1,2.602286041E-1
8.063810415E0,1.530828238E0,3.090977967E-1,-1.197295859E-1
8.085563019E0,1.546710730E0,-1.219287038E0,3.995058537E-1
8.105753123E0,4.112344742E0,-1.382998943E0,7.977899909E-1
8.134879686E0,3.866776943E0,-1.291369081E0,2.981022298E-1
8.155546352E0,-3.043330669E0,-6.108652353E-1,1.209513173E-1
8.175566665E0,-3.718947649E0,1.255938888E0,-1.248608589E0
8.203766144E0,-3.375641346E0,3.307224274E0,-3.775147200E-1
8.223811457E0,-9.236282110E-1,-3.456275463E0,-5.485569835E-1
8.244102082E0,5.925392509E-1,-1.148426607E-1,4.899139106E-1
8.266223957E0,3.811799049E0,-2.230879784E0,1.291369081E0
8.294026561E0,3.827681541E0,-2.698802710E0,2.321287841E-1
8.315794790E0,3.291341782E0,-8.478809595E-1,-5.193576336E0
8.336274998E0,3.412293196E0,1.389107585E0,-2.287079334E0
8.363964582E0,5.281540871E0,1.343903504E-2,3.061656475E0
8.385555727E0,4.653571606E0,5.070181489E-1,2.296853215E-1
8.413973436E0,2.239431858E0,-3.005456924E-1,-1.023810148E0
8.446970311E0,1.908342957E0,-1.718974829E0,-7.367034554E-1
8.473836977E0,8.454374671E-1,-1.858252048E0,-2.565633953E-1
8.494283332E0,7.086037099E-2,-9.896016717E-1,-3.420845419E-2
8.515740102E0,-9.456194043E-1,1.626123309E0,1.083674908E0
8.536146352E0,-1.881464958E0,1.407433510E0,1.673770785E0
8.564469269E0,-2.210110426E0,1.508837104E0,1.110553026E0
8.585755207E0,-2.794097662E0,2.944370508E0,1.099557430E-2
8.613796352E0,-2.924822807E0,1.381777167E0,-7.086036801E-1
8.635436457E0,-2.950479031E0,1.089783549E0,-1.270599723E0
8.655540623E0,-4.184426785E0,-1.501506805E0,-9.443976283E-1
8.675560936E0,-5.429370403E0,-1.273043156E0,1.026253626E-1
8.703932811E0,-3.341432810E0,-1.297477722E0,-1.930334121E-1
8.725556769E0,-2.822197437E0,7.501425147E-1,4.471533597E-1
8.745756248E0,-2.475225925E0,1.803274155E0,7.049384713E-1
8.765793748E0,-1.799608946E0,1.827708840E0,5.265658498E-1
8.794020832E0,-4.679227769E-1,1.610240817E0,2.981022298E-1
8.814116144E0,4.483750761E-1,1.568701982E0,1.612684280E-1
8.834873957E0,1.199739337E0,1.048244715E0,-2.003637999E-1
8.855539061E0,1.391551018E0,-2.956587672E-1,-2.638937831E-1
8.875563540E0,2.199114799E0,-7.916813493E-1,4.251621962E-1
8.903793227E0,4.151440144E0,-4.960225821E-1,1.050688177E-1
8.925560415E0,1.315803766E0,-1.596801758E0,6.462954283E-1
8.947619269E0,-4.192978859E0,-1.733635545E0,-9.896016866E-2
8.973994790E0,-3.725056171E0,3.348763227E0,-3.115412593E-1
8.994082811E0,-8.161159754E-1,-7.489207983E-1,-4.190535545E-1
9.015767706E0,1.979203373E-1,-2.272418737E-1,3.982841372E-1
9.036210936E0,2.373822212E0,-2.003637999E-1,9.126326442E-1
9.063798436E0,4.012162685E0,-3.931528568E0,9.505063295E-1
9.083989061E0,4.902804375E0,-1.742187619E0,-6.524040699E-1
9.104064061E0,6.195394993E0,8.979718685E-1,-6.238155842E0
9.124100519E0,3.016452551E0,1.372003317E0,2.415361166E0
9.145758852E0,4.729318619E0,8.894197941E-1,2.772106409E0
9.174003123E0,3.327993870E0,-2.321287990E-2,-3.836233616E-1
9.194296352E0,2.006081343E0,-7.745771408E-1,-1.077566266E0
9.215799477E0,2.024407387E0,-2.128254414E0,-9.065240026E-1
9.236180727E0,1.284038782E0,-3.233920574E0,-3.567453027E-1
9.263908331E0,3.481931984E-1,-2.354274511E0,2.809980139E-2
9.285547915E0,-8.723155856E-1,1.627344966E0,1.214400053E0
9.305743227E0,-1.984090328E0,1.412320375E0,1.991420627E0
9.335544790E0,-2.164906502E0,1.534493446E0,1.153313518E0
9.355561977E0,-2.724458933E0,2.802649736E0,1.282816976E-1
9.383800519E0,-2.785545588E0,8.112290502E-1,-5.986479521E-1
9.403917186E0,-2.460565090E0,8.576548100E-1,-7.916813493E-1
9.425748436E0,-3.365867376E0,5.558873415E-1,-7.415903807E-1
9.446656248E0,-5.731137753E0,-1.722639948E-1,-4.886921868E-2
9.474005727E0,-3.819129467E0,-6.487388611E-1,6.475171447E-2
9.494406769E0,-2.951700926E0,-3.726277947E-1,-5.522221923E-1
9.515889581E0,-2.833193064E0,9.822713137E-1,-2.113593668E-1
9.544333331E0,-1.545489073E0,1.137431026E0,2.651154995E-1
9.565759373E0,-3.262020350E-1,1.346346974E0,3.323106766E-1
9.594509894E0,5.302309990E-1,1.539380431E0,1.014036313E-1
9.615748436E0,9.896016717E-1,1.163087368E0,-2.895501256E-1
9.636147394E0,1.116661668E0,-1.050688177E-1,-6.120869517E-1
9.663776561E0,2.795319319E0,-8.943067193E-1,7.440338731E-1
9.684018748E0,4.393342972E0,-1.103222609E0,5.314527750E-1
9.705543748E0,1.258382440E0,-1.655444741E0,9.553932548E-1
9.725565623E0,-4.822170258E0,-3.237585723E-1,-2.638937831E-1
9.745781248E0,-3.209486008E0,6.756169796E-1,-6.340780854E-1
9.773806769E0,-1.001819015E0,-1.467298269E0,-7.379252315E-1
9.794036977E0,-6.731734872E-1,-1.524719596E0,-4.557054639E-1
9.815765623E0,1.523497939E0,6.230825186E-1,-6.108652428E-2
9.836224477E0,3.896098375E0,-3.441614628E0,1.571145415E0
9.863817186E0,4.614476204E0,-3.402519464E0,-8.429940045E-2
9.883824998E0,4.153883457E0,-1.136209369E-1,-6.152634621E0
9.903864581E0,3.415958405E0,1.335351348E0,1.138652802E0
9.924005206E0,4.390899181E0,1.081231475E0,3.325550318E0
9.948178123E0,4.439768314E0,1.860695481E0,5.241223574E-1
9.974092186E0,1.819156647E0,-7.538077235E-1,-1.372003317E0
9.994095831E0,1.042136073E0,-1.463633060E0,-6.230825186E-1
1.001574948E1,-1.282816976E-1,-1.437976718E0,1.576032341E-1
1.003638958E1,-1.798387289E0,-8.759807348E-1,-2.076941729E-2
1.006378021E1,-2.857627630E0,3.329215527E0,8.527678847E-1
1.008407448E1,-3.031113386E0,1.573588848E0,9.321803451E-1
1.010555573E1,-2.750115395E0,7.904596329E-1,3.371976018E-1
1.012557031E1,-3.550348759E0,1.947438359E0,-4.080579877E-1
1.014578698E1,-4.183205128E0,1.343903542E0,-9.334020615E-1
1.017396354E1,-3.507588148E0,-2.061059237E0,-1.342681766E0
1.019405885E1,-3.303559303E0,-3.838677168E0,-1.436755061E0
1.021575208E1,-3.648087263E0,-1.302364707E0,-1.335351348E0
1.023619166E1,-5.551543236E0,7.965682745E-1,9.724974632E-1
1.026398333E1,-3.403741121E0,7.367034554E-1,1.131322384E0
1.028556614E1,-2.229658127E0,4.141666293E-1,1.979203373E-1
1.031394166E1,-1.755626678E0,3.225368559E-1,3.469714522E-1
1.033488333E1,-4.874704480E-1,2.492330223E-1,3.469714522E-1
1.035555052E1,8.222246170E-1,4.153883457E-1,5.619960278E-2
1.038439687E1,2.141693592E0,8.063421398E-2,-4.801400900E-1
1.040554635E1,2.835636377E0,-4.996877611E-1,-7.061601877E-1
1.042556406E1,2.601064205E0,-1.339016557E0,-3.249803185E-1
1.044667552E1,1.853365183E0,-1.849699974E0,3.714060783E-1
1.047400312E1,1.076344490E0,7.452555746E-2,1.050688148E0
1.049409739E1,1.045801282E0,2.172236681E0,6.597344279E-1
1.051573750E1,-1.841147780E0,1.925447226E0,-2.382374406E-1
1.053626354E1,-4.895473957E0,-1.050688148E0,-2.669481039E0
1.056395104E1,-1.172861218E0,1.927890658E0,-2.720793724E0
1.058555833E1,-2.553416789E-1,3.251024723E0,6.548475623E-1
1.061386094E1,5.411044121E0,-4.553389549E0,3.514918566E0
1.063487031E1,7.022506714E0,-4.410447121E0,2.029294252E0
1.065557031E1,3.760486364E0,-1.426981211E0,-2.078163624E0
1.068378489E1,2.913827181E0,8.869763017E-1,-1.255938888E0
1.070386718E1,2.274862051E0,1.705535769E0,8.307766914E-1
1.072556198E1,5.126380920E0,1.654223084E0,2.302961826E0
1.074576614E1,3.479488373E0,1.127657175E0,-3.213151097E-1
1.077376198E1,5.424483418E-1,-1.066570759E0,-1.645670891E0
1.079407448E1,1.869247556E-1,-7.953465581E-1,-3.640756905E-1
1.081576510E1,-2.103819847E0,-4.092797041E-1,-3.775147200E-1
1.083590989E1,-2.211332083E0,-2.199114859E-1,2.565634064E-2
1.086404323E1,-2.343279123E0,8.210029006E-1,9.443976283E-1
1.088554218E1,-3.510031700E0,1.218065262E0,2.309070528E-1
1.090558281E1,-3.120299578E0,1.516167521E0,-1.295034289E0
1.094731823E1,-2.189341068E0,-1.966986060E0,-1.733635545E0
1.097378437E1,-3.848450899E0,-1.688431501E0,-1.756848454E0
1.099446146E1,-3.809355497E0,-2.522873402E0,-2.465452194E0
1.101585416E1,-2.813645363E0,-3.805690527E0,3.481931984E-1
1.103620625E1,-2.686585426E0,-3.077538967E0,1.117883325E0
1.106394792E1,-2.708576441E0,-9.908233881E-1,-7.403686643E-1
1.108554219E1,2.443460934E-2,-1.466076542E-2,2.577851415E-1
1.110576771E1,1.434311628E0,8.784242272E-1,-2.211332172E-1
1.113543906E1,2.039068222E0,2.197893143E0,-6.108652353E-1
1.115555885E1,2.018298626E0,2.151467323E0,-3.555235565E-1
1.118377604E1,2.685363531E0,1.512502313E0,2.883283794E-1
1.120395885E1,2.538755894E0,2.089159042E-1,1.552819371E0
1.122574791E1,1.171639562E0,-1.711644411E0,2.195449591E0
1.125401250E1,1.022588372E0,-9.651670456E-1,2.216219187E0
1.127553958E1,-5.192354321E-1,-3.506366313E-1,1.909564734E0
1.129556198E1,-2.704911232E0,3.200933933E0,4.105014503E-1
1.131578125E1,-4.541172028E0,3.464827538E0,-1.276708364E0
1.133611823E1,1.685988009E-1,3.444058180E0,-3.064100027E0
1.136412031E1,2.371378899E0,-1.488067746E0,2.993239760E-1
1.138557083E1,4.459316254E0,-3.472157955E0,2.697580814E0
1.141399687E1,6.925990105E0,8.112290502E-1,1.170417786E0
1.144710625E1,2.842966795E0,4.114788055E0,-1.795943737E0
1.147381250E1,4.607145786E0,6.951646209E-1,2.787988901E0
1.149447604E1,4.987103939E0,-7.195992470E-1,1.941329718E0
1.151575729E1,1.468520045E0,-1.930334121E-1,-4.569272101E-1
1.153618177E1,1.637118906E-1,-1.209513173E-1,-1.324355841E0
1.156382968E1,-2.138028294E-1,-1.799608946E0,-6.951646209E-1
1.158394427E1,-7.977899909E-1,-1.222952247E0,8.197811246E-1
1.160555677E1,-1.274264932E0,2.178345442E0,1.974316478E0
1.163535104E1,-1.808161139E0,7.367034554E-1,1.170417786E0
1.165555104E1,-1.881464958E0,6.719517708E-1,-8.918632567E-2
1.168379739E1,-2.720793724E0,1.324355841E0,-1.739744186E0
1.170575521E1,-2.864958048E0,-2.247984111E-1,-1.955990434E0
1.173486875E1,-3.368310928E0,-1.148426607E-1,-8.552113175E-1
1.175554271E1,-5.119050503E0,-1.182635069E0,2.883283794E-1
1.177555937E1,-4.081801414E0,-7.073819637E-1,-3.665191354E-3
1.180410104E1,-3.253468275E0,8.723155856E-1,-3.090977967E-1
1.182575469E1,-3.188716650E0,6.352998614E-1,-2.296853215E-1
1.185400312E1,-1.775174379E0,5.290092826E-1,-1.307251602E-1
1.187555156E1,-2.858849168E-1,3.665191308E-2,-2.431243658E-1
1.190378698E1,1.177748203E0,-2.993239760E-1,-4.031710625E-1
1.192392396E1,2.257757902E0,-5.082398653E-1,-4.166100919E-1
1.194749375E1,2.400700331E0,-6.939429045E-1,-4.996877611E-1
1.197383489E1,8.136724830E-1,-4.593706429E-1,-9.431759119E-1
1.199451406E1,2.357939780E-1,-2.199114859E-1,7.452555746E-2
1.201453333E1,1.954768777E0,1.612684280E-1,1.039692640E0
1.203491458E1,1.458746195E0,-1.156978726E0,1.139874578E0
1.205556146E1,-3.886324644E0,7.574728727E-1,-4.935791194E-1
1.208398177E1,-3.156951427E0,6.157521605E-1,-1.092227101E0
1.210445521E1,5.485569835E-1,-1.153313518E0,1.248608589E0
1.212553958E1,3.248581409E0,2.676811457E0,-1.610240817E0
1.214576406E1,2.945592165E0,-4.041484356E0,-2.152688980E0
1.216577291E1,4.367686272E0,-1.534493446E0,-2.269975185E0
1.219402604E1,4.775744438E0,2.021963835E0,-2.653598547E0
1.221578021E1,4.284608841E0,7.635815740E-1,2.602286041E-1
1.223615625E1,4.707327366E0,5.473352671E-1,1.954768784E-2
1.226377760E1,3.914424419E0,-6.487388611E-1,-8.185594082E-1
1.228399844E1,2.472782373E0,-8.686503768E-1,-1.897347450E0
1.230575625E1,9.297369123E-1,-2.553416789E-1,-2.100154638E0
1.233545729E1,2.687807009E-2,2.492330223E-1,-7.977899909E-1
1.235555208E1,9.651670605E-2,-4.862487316E-1,-1.710422710E-2
1.238377708E1,-9.505063295E-1,9.138544202E-1,2.074498415E0
1.240377708E1,-1.981646776E0,1.695761919E0,2.693915606E0
1.242401771E1,-2.235766649E0,1.320690632E0,1.671327233E0
1.244693906E1,-2.657263756E0,1.292590857E0,4.520402849E-2
1.247384583E1,-3.164281845E0,4.117231667E-1,-1.468520045E0
1.249399427E1,-3.848450899E0,-1.075122803E-1,-8.295549750E-1
1.251409375E1,-4.069584370E0,3.921754956E-1,3.103195429E-1
1.253541562E1,-4.293160915E0,-1.453859210E0,-5.412266254E-1
1.255562291E1,-3.407406330E0,-1.246165037E0,-1.413542151E0
1.258375677E1,-2.869844913E0,-8.038986325E-1,-1.172861218E0
1.260378958E1,-2.505769253E0,-1.014036313E-1,-5.619960427E-1
1.262402552E1,-1.689653277E0,-4.459316134E-1,5.131268129E-2
1.264406510E1,-6.633996367E-1,-5.607742667E-1,3.604104817E-1
1.266576614E1,4.373795092E-1,1.649336070E-1,1.698205322E-1
1.269428594E1,1.018923163E0,8.674286604E-1,-3.518583775E-1
1.271574219E1,1.673770696E-1,5.400048494E-1,-1.095892191E0
1.273584844E1,3.665191531E-1,1.659109950E0,-8.393288255E-1
1.276393281E1,2.785545588E0,-1.264491081E0,1.350012183E0
1.278576250E1,2.724458933E0,-2.796540976E0,1.977981687E0
1.281404427E1,-1.624901533E0,-1.558928132E0,9.053022861E-1
1.283542969E1,-8.714603424E0,3.154508114E0,-5.864306092E-1
1.285556302E1,-2.674367905E0,2.321287841E-1,2.288301229E0
1.288380208E1,3.397632360E0,6.377432942E-1,1.050688177E-1
1.290393281E1,1.396437883E0,1.347568750E0,3.323106766E-1
1.292394271E1,2.714685202E0,-1.117883325E0,1.153313518E0
1.294741510E1,5.161811352E0,9.517280459E-1,5.925392509E-1
1.297426250E1,5.040859699E0,1.508837104E0,-2.590068579E-1
1.299444114E1,4.245513439E0,1.616349459E0,6.316346526E-1
1.301576666E1,4.554611206E0,1.203404546E0,9.248499870E-1
1.303586614E1,3.314554691E0,9.688322544E-1,1.064127207E0
1.306388750E1,1.477072120E0,9.443976283E-1,8.307766914E-2
1.308554583E1,-5.326744914E-1,8.564330339E-1,-2.138028294E-1
1.310557135E1,-7.195992470E-1,-6.658431292E-1,1.193630695E0
1.313533333E1,-6.914994717E-1,3.787364438E-2,2.062281132E0
1.315556146E1,-1.497841597E0,1.832595654E-2,1.722639918E0
1.318393073E1,-2.090380907E0,6.157521605E-1,7.318165302E-1
1.320398802E1,-2.701246023E0,9.981538057E-1,-6.597344577E-2
1.322554635E1,-3.050661087E0,-1.632231951E0,-5.705481172E-1
1.324556510E1,-4.046371460E0,-9.321803451E-1,-1.396437883E0
1.326577552E1,-4.140444756E0,-1.684766293E0,-1.795943737E0
1.329402604E1,-3.866776943E0,-1.552819371E0,-1.148426652E0
1.331574948E1,-3.050661087E0,-2.010968447E0,-4.495968223E-1
1.333618646E1,-2.257757902E0,-2.105041504E0,-1.282816976E-1
1.336385885E1,-1.133765936E0,-2.295631647E0,2.186897546E-1
1.338400989E1,-2.919935882E-1,-1.920560360E0,6.108652428E-2
1.340556354E1,6.401867867E-1,-1.049466491E0,-6.597344577E-2
1.344626614E1,1.604132056E0,1.303586364E0,-1.832595654E-2
1.347381562E1,3.860668242E-1,4.508185387E-1,-3.665191308E-2
1.349405885E1,1.274264932E0,-7.965682745E-1,6.841690540E-1
1.351576302E1,2.489886761E0,-8.185594082E-1,1.099557400E0
1.353627239E1,6.963863969E-2,6.230825186E-1,1.517389297E0
1.356383958E1,-4.497189999E0,2.266309977E0,1.225395679E0
1.358557396E1,-3.569896460E0,-3.005456924E-1,1.148426652E0
1.361384427E1,4.878369808E0,3.086091280E0,1.600466967E-1
1.363545312E1,3.445279896E-1,1.211956620E0,7.489207983E-1
1.365555052E1,2.480112791E0,6.548475623E-1,-3.481931984E-1
1.367567291E1,5.182580471E0,1.522276163E0,-2.008524895E0
1.370379739E1,5.980370522E0,3.176499158E-2,-2.812423468E0
1.372382448E1,4.524067879E0,3.078760803E-1,-1.833817482E0
1.374413437E1,3.463605881E0,2.687807083E-1,-5.888741016E-1
1.376575625E1,3.370754480E0,-4.764748737E-2,-3.298672289E-2
1.379447812E1,2.399478674E0,-8.808676600E-1,-1.027475357E0
1.381574062E1,5.241223574E-1,-7.037167549E-1,-1.328021049E0
1.383628177E1,-8.429940045E-2,-6.548475623E-1,-4.715879560E-1
1.386383802E1,1.185078546E-1,-1.160643920E-1,1.610240817E0
1.388394531E1,-1.086118340E0,4.935791194E-1,2.184454203E0
1.390554844E1,-2.040289879E0,2.846632004E-1,1.418429136E0
1.394717239E1,-3.209486008E0,-2.956587672E-1,-5.864306092E-1
1.397385833E1,-3.150842905E0,1.296256065E0,-7.977899909E-1
1.399429635E1,-4.629136562E0,1.451415777E0,-5.106833577E-1
1.401576614E1,-3.662747860E0,-7.550294399E-1,-9.358455539E-1
1.403621146E1,-3.185051441E0,-1.494176388E0,-7.269296050E-1
1.406399739E1,-3.674965143E0,-4.447098970E-1,-1.431868076E0
1.408556198E1,-2.818532228E0,-2.638937831E-1,-1.001819015E0
1.410576041E1,-9.126326442E-1,3.762929738E-1,5.986479297E-2
1.413492604E1,1.502728462E-1,1.166752577E0,6.707300544E-1
1.415564739E1,6.695082784E-1,1.624901533E0,3.408628106E-1
1.418397239E1,1.211956620E0,1.784948230E0,-4.801400900E-1
1.420554062E1,1.038470864E0,9.993755221E-1,-1.007927656E0
1.422576198E1,6.927211881E-1,6.682865620E-1,-8.759807348E-1
1.425385989E1,2.768441200E0,-8.100072742E-1,1.176526427E0
1.427555260E1,3.736051798E0,-2.102598190E0,2.359161615E0
1.429561614E1,7.122688890E-1,-3.279124498E0,2.266309977E0
1.431580521E1,-2.375044107E0,1.191187263E0,7.024950385E-1
1.433615416E1,-7.082371712E0,2.651155233E0,-1.040914416E0
1.436401406E1,-4.803844452E0,6.988298297E-1,-2.185675859E0
1.438555416E1,4.328590870E0,-1.121548533E0,1.759291887E-1
1.441403125E1,3.503922939E0,-2.140471697E0,6.731734872E-1
1.444721875E1,5.411044121E0,4.667010307E-1,-1.306029916E0
1.447387604E1,3.247359514E0,1.941329718E0,-9.443976283E-1
1.449440156E1,3.744603872E0,3.750712574E-1,1.391551018E0
1.451573854E1,6.010913849E0,5.082398653E-1,1.237612963E0
1.453625625E1,5.329188347E0,-3.665191531E-1,6.181955934E-1
1.456376250E1,2.877175331E0,-4.776966274E-1,-2.907718420E-1
1.458389948E1,1.814269781E0,-7.147123218E-1,-1.683544636E0
1.460554166E1,7.073819637E-1,-8.955284357E-1,-1.694540143E0
1.462556719E1,4.825835228E-1,-1.369559884E0,-8.429940343E-1
1.465400156E1,-3.628539443E-1,6.035348773E-1,1.645670891E0
1.467555625E1,-2.202780008E0,2.064724445E0,3.290120125E0
1.469561146E1,-2.063502789E0,1.275486588E0,3.032335043E0
1.471575052E1,-2.147802114E0,9.932668805E-1,1.727526903E0
1.473591510E1,-2.949257374E0,1.260825872E0,-3.127630055E-1
1.476394375E1,-3.007900476E0,1.894904017E0,-1.974316478E0
1.478555625E1,-4.754974842E0,2.993239760E-1,-4.654793143E-1
1.481390989E1,-4.135557652E0,-1.102000833E0,-3.139847219E-1
1.483490052E1,-3.876550674E0,-1.040914416E0,-6.682865620E-1
1.485565469E1,-3.721390963E0,-2.907718420E-1,-8.759807348E-1
1.488399271E1,-3.513696909E0,1.219287038E0,-5.106833577E-1
1.490556875E1,-2.118480682E0,1.594358325E0,3.787364364E-1
1.494740833E1,-1.795943826E-1,1.353677392E0,8.613199592E-1
1.497385000E1,8.136724830E-1,1.226617336E0,1.893682182E-1
1.499455468E1,1.060461998E0,9.834930301E-1,-3.213151097E-1
1.501576041E1,3.640756905E-1,7.977899909E-1,-1.022588372E0
1.503584635E1,1.043357849E0,-2.089159042E-1,-3.396410644E-1
1.506398125E1,3.558900833E0,-1.121548533E0,1.205847979E0
1.508554583E1,1.835039139E0,-2.863736153E0,1.688431501E0
1.510556875E1,-9.896016717E-1,-1.558928132E0,-1.295034289E-1
1.512556927E1,-6.527706146E0,2.230879784E0,-1.486845970E0
1.514585989E1,-5.204571724E0,-1.937664509E0,-8.002334833E-1
1.517381718E1,3.374419451E0,6.047565937E-1,-9.162978530E-1
1.519440052E1,4.828279018E0,-8.271115422E-1,2.199114859E-1
1.521578854E1,3.411071539E0,-2.679255009E0,-1.258382350E-1
1.523588073E1,4.630358696E0,5.864306092E-1,-5.265658498E-1
1.526389219E1,3.946189404E0,6.389650106E-1,-2.382374406E-1
1.528411094E1,3.990171671E0,-1.527163088E-1,3.836233616E-1
1.530574479E1,5.032307625E0,1.319468915E-1,6.450737119E-1
1.533490937E1,4.081801414E0,-9.150761366E-1,4.471533597E-1
1.535556666E1,2.591290236E0,-1.243721604E0,-7.086036801E-1
1.538379010E1,1.244943380E0,-5.241223574E-1,-1.440420270E0
1.540556094E1,7.733553648E-1,-5.363397002E-1,-8.637634516E-1
1.542576041E1,4.886921961E-3,5.253440887E-2,1.160643920E-1
1.544629479E1,-1.089783549E0,1.114218235E0,1.567480206E0
1.547381875E1,-2.662150621E0,5.461135507E-1,2.568077564E0
1.549430521E1,-2.356718063E0,1.196074128E0,2.216219187E0
1.551577656E1,-2.759889126E0,2.221106052E0,7.489207983E-1
1.553586771E1,-3.304780960E0,1.639562249E0,-1.055575132E0
1.556390260E1,-2.722015381E0,1.660331726E0,-1.337794900E0
1.558410677E1,-5.199685097E0,2.382374406E-1,5.681046844E-1
1.560556510E1,-4.125783920E0,-1.441641927E0,-3.323106766E-1
1.563554687E1,-3.330437183E0,-1.336573124E0,-9.150761366E-1
1.565555104E1,-3.483153582E0,4.715879560E-1,-7.342600226E-1
1.568382812E1,-2.770884752E0,2.128254414E0,-1.221730490E-3
1.570391250E1,-9.834930301E-1,1.684766293E0,6.328563690E-1
1.572556666E1,-1.099557430E-2,9.981538057E-1,9.724974632E-1
1.574577552E1,6.389650106E-1,6.841690540E-1,7.281513810E-1
1.577439948E1,9.040805697E-1,6.365215778E-1,-3.665191308E-2
1.579556458E1,3.408628106E-1,-3.543018550E-2,-7.244861722E-1
1.581576458E1,8.491026759E-1,-7.428121567E-1,-3.591887653E-1
1.583614948E1,3.408627987E0,-8.918632269E-1,7.318165302E-1
1.586383906E1,2.695137501E0,-1.260825872E0,1.401324868E0
1.588555937E1,-3.343876362E0,1.451415777E0,-8.442157507E-1
1.590575000E1,-9.745743752E0,4.544837475E-1,-2.839301586E0
1.594711250E1,2.634050846E0,-1.061683774E0,1.252273679E0
1.597381927E1,6.249151230E0,-1.109331250E0,3.384193480E-1
1.599404166E1,5.574756145E0,-2.739119768E0,-3.139847219E-1
1.601574218E1,5.152037621E0,1.193630695E0,-3.767816782E0
1.603624687E1,1.490511179E0,1.043357849E0,1.009149313E0
1.606378750E1,5.436700821E0,-6.414085031E-1,1.891238809E0
1.608379270E1,5.798332691E0,-2.968805134E-1,3.799581826E-1
1.610380000E1,3.045773983E0,-6.511823535E-1,-3.481931984E-1
1.612393281E1,2.090380907E0,-1.058018565E0,-9.370672703E-1
1.614399323E1,1.769065738E0,-7.611380816E-1,-1.896125674E0
1.616580677E1,1.220508695E0,-7.819074988E-1,-1.442863703E0
1.619446666E1,1.238834739E0,-5.656611919E-1,1.795943826E-1
1.621574791E1,-3.640756905E-1,1.731192112E0,2.111150265E0
1.623616458E1,-2.074498415E0,1.909564734E0,2.598620653E0
1.626395104E1,-2.277305603E0,1.180191636E0,1.802052498E0
1.628556302E1,-2.508212566E0,1.963320851E0,2.138028294E-1
1.630556302E1,-3.095865011E0,9.627236128E-1,-1.182635069E0
1.633545416E1,-2.377487421E0,2.183232307E0,-1.131322384E0
1.635555052E1,-5.402492046E0,1.144761443E0,1.310916781E0
1.638378125E1,-4.159992218E0,-3.909537569E-2,-9.871582389E-1
1.640401979E1,-3.378084660E0,-1.014036298E0,-1.356120825E0
1.642555833E1,-3.287676811E0,3.543018550E-2,-1.039692640E0
1.644812968E1,-2.949257374E0,1.480737329E0,-3.323106766E-1
1.647396562E1,-1.341460109E0,1.573588848E0,6.633996367E-1
1.649455208E1,-5.864306092E-1,1.561371565E0,8.429940343E-1
1.651576979E1,9.040805697E-2,1.474628687E0,6.230825186E-1
1.653591614E1,6.597344279E-1,1.161865711E0,2.003637999E-1
1.656401041E1,5.192354321E-1,4.801400900E-1,-4.972442985E-1
1.658555208E1,1.269377947E0,-6.475171447E-1,-2.480112910E-1
1.661397552E1,3.736051798E0,-1.656666517E0,8.478809595E-1
1.663488541E1,3.138625622E0,-1.904677749E0,1.374446750E0
1.665556666E1,-1.830152273E0,7.880161405E-1,5.619960427E-1
1.668396770E1,-4.412890434E0,1.957212210E0,-1.056796908E0
1.670400573E1,-7.502646923E0,1.466076542E-2,-2.065946341E0
1.672436875E1,-5.852088928E-1,-1.314581990E0,-1.265712738E0
1.674576041E1,4.530176640E0,-3.176499158E-2,1.350012183E0
1.677387500E1,3.401297569E0,-1.953547001E0,2.174680233E-1
1.679451198E1,4.989547253E0,-2.486221552E0,-5.265658498E-1
1.681576198E1,4.973664761E0,5.571091175E-1,-2.089159012E0
1.683589739E1,2.684141874E0,2.993239760E-1,8.210029006E-1
1.686380208E1,5.549099922E0,7.428121567E-1,7.867944241E-1
1.688384323E1,5.486791611E0,4.459316134E-1,2.516764700E-1
1.690556458E1,3.141068935E0,-6.780604124E-1,-1.979203373E-1
1.694773489E1,1.328021049E0,-4.776966274E-1,-1.942551494E0
1.697398906E1,8.161159754E-1,-4.813618064E-1,-1.023810148E0
1.699403125E1,1.356120855E-1,9.065240026E-1,8.845328689E-1
1.701578333E1,-2.432465315E0,1.540602088E0,3.203377247E0
1.703629270E1,-3.180164337E0,8.417723179E-1,2.963918209E0
1.706386666E1,-2.135584831E0,2.147802114E0,1.661553383E0
1.708554427E1,-3.128851652E0,2.902831554E0,-3.616322279E-1
1.710577031E1,-3.353650093E0,1.574810624E0,-1.736078978E0
1.713537083E1,-3.251024723E0,-8.429940045E-2,-1.831373930E0
1.715555781E1,-5.671272755E0,-8.442157507E-1,-4.031710699E-2
1.718400416E1,-4.130670547E0,-1.613905907E0,-7.843509912E-1
1.720554791E1,-3.309667826E0,-1.238834739E0,-7.623597980E-1
1.722576146E1,-2.945592165E0,1.209513187E0,-1.038470864E-1
1.724594687E1,-2.419026375E0,2.365270138E0,8.332201838E-1
1.727392708E1,-1.372003317E0,1.946216583E0,1.273043156E0
1.729409427E1,-4.557054639E-1,1.555262923E0,1.115439892E0
1.731577500E1,5.448917747E-1,1.352455616E0,3.054326177E-1
1.733611823E1,9.944885969E-1,1.149648428E0,-2.785545588E-1
1.736379062E1,1.139874578E0,8.588765264E-1,-8.552113175E-2
1.738394323E1,2.635272741E0,5.717698336E-1,5.119050741E-1
1.740396250E1,4.511850834E0,-8.906415105E-1,1.058018565E0
1.742555416E1,7.831292152E-1,-2.807536602E0,1.214400053E0
1.744726198E1,-2.533869028E0,4.056145251E-1,-3.799581826E-1
1.747382135E1,-5.484348297E0,2.750115395E0,-1.871691108E0
1.749400000E1,-5.803219795E0,-4.752531648E-1,-1.475850463E0
1.751575364E1,3.210707664E0,-1.860695481E0,-1.437976718E0
1.753619739E1,4.388455868E0,1.149648428E0,7.281513810E-1
1.756387812E1,2.167349815E0,-1.710422635E0,2.944370508E-1
1.758401093E1,5.022533894E0,4.043927789E-1,2.272418737E-1
1.760555781E1,5.484348297E0,1.309695125E0,-1.039692640E0
1.762561302E1,3.221703291E0,1.303586364E0,2.809980214E-1
1.765399062E1,4.745201111E0,6.072000265E-1,9.370672703E-1
1.767401093E1,4.493524551E0,-1.343903542E-1,3.176499307E-1
1.769404739E1,3.439171314E0,-9.566149712E-1,-3.921754956E-1
1.771576250E1,2.499660492E0,-1.740965962E0,-1.517389297E0
1.773623073E1,1.354899049E0,-1.693318486E0,-1.635897160E0
1.776393750E1,8.491026759E-1,-1.384220600E0,-7.208209634E-1
1.778394843E1,1.820378453E-1,9.065240026E-1,5.155702829E-1
1.780450468E1,-1.128878951E0,7.953465581E-1,2.279749155E0
1.782575625E1,-2.316401005E0,7.953465581E-1,2.829527855E0
1.785387448E1,-2.243097067E0,2.806314945E0,1.494176388E0
1.787393646E1,-2.963918209E0,3.298672199E0,-2.516764700E-1
1.789401093E1,-3.034778595E0,3.156951427E0,-1.710422635E0
1.791442656E1,-3.408627987E0,1.953547001E0,-1.302364707E0
1.794804114E1,-4.590041161E0,-1.017701507E0,-4.349360466E-1
1.796874896E1,-4.015828133E0,-1.685988069E0,-1.403768301E0
1.799441875E1,-3.959628344E0,-1.483180761E0,-6.352998614E-1
1.801505416E1,-3.889989853E0,7.855727077E-1,3.127630055E-1
1.803539323E1,-2.855184078E0,2.387261391E0,1.103222609E0
1.805555833E1,-1.342681766E0,2.733011007E0,1.312138557E0
1.808438958E1,-7.452555746E-2,2.119702339E0,9.004153609E-1
1.810555052E1,5.998696685E-1,1.585806131E0,3.591887653E-1
1.813539635E1,1.844813079E-1,1.203404546E0,3.604104817E-1
1.815553906E1,1.629788399E0,8.258898258E-1,8.393288255E-1
1.817556562E1,4.094018936E0,-7.208209634E-1,9.773843884E-1
1.820397343E1,3.448945045E0,-2.300518513E0,1.062905550E0
1.822555937E1,-2.208888769E0,-3.420845419E-2,1.661553383E-1
1.825379010E1,-4.772078991E0,2.084272146E0,-1.628566742E0
1.827380677E1,-8.089076996E0,-7.330382708E-3,-3.226590157E0
1.829440156E1,-1.737300754E0,-1.600466967E0,-1.277930021E0
1.831576198E1,4.946786880E0,-1.381777167E0,1.695761919E0
1.833625937E1,4.977329731E0,-1.563814998E0,8.344419003E-1
1.836391823E1,5.274210453E0,-2.614503145E0,-4.593706429E-1
1.838554948E1,3.955963373E0,3.494149208E0,-3.133738756E0
1.841384843E1,3.588222504E0,1.175304770E0,2.183232307E0
1.844696979E1,5.970596790E0,8.429940045E-2,8.283332586E-1
1.846773229E1,3.495370865E0,-6.462954283E-1,-1.759291887E-1
1.849210885E1,2.186897516E0,-7.574728727E-1,-1.533271790E0
1.851581562E1,1.301142931E0,-7.586946487E-1,-1.828930497E0
1.854212083E1,1.235169530E0,-1.015258074E0,-5.180137157E-1
1.856579479E1,-3.188716471E-1,6.853907704E-1,1.557706356E0
1.859215208E1,-2.871066570E0,7.916813493E-1,2.907718420E0
1.861578333E1,-2.117259026E0,1.078788042E0,2.009746552E0
1.864247604E1,-2.905275106E0,3.026226282E0,6.475171447E-2
1.866579218E1,-3.455053806E0,2.080606937E0,-1.875356317E0
1.869208437E1,-3.391523838E0,1.527163148E0,-1.511280537E0
1.871576718E1,-5.538104057E0,-1.112996459E0,7.794640660E-1
1.874234791E1,-4.142888069E0,-2.062281132E0,-1.236391187E0
1.876579010E1,-3.714060545E0,-2.069611311E0,-7.990117073E-1
1.878579062E1,-3.671300173E0,3.249803185E-1,-3.176499158E-2
1.881192448E1,-2.836858273E0,3.075095654E0,8.881980777E-1
1.883285364E1,-1.815491438E0,2.974913597E0,1.210734844E0
1.885555833E1,-6.181955934E-1,2.550973177E0,1.164309144E0
1.887558021E1,2.651154995E-1,2.135584831E0,7.061601877E-1
1.890190000E1,1.007927656E0,1.345125198E0,2.028072625E-1
1.892205260E1,6.230825186E-1,8.588765264E-1,2.993239760E-1
1.894612968E1,1.616349459E0,1.087340117E-1,1.056796908E0
1.897386510E1,3.379306555E0,-2.452013016E0,1.452637553E0
1.899438750E1,1.104444385E0,-2.963918209E0,1.437976718E0
1.901574114E1,-2.074498415E0,1.087340117E0,3.323106766E-1
1.903610677E1,-4.200309277E0,4.186870098E0,-1.000597239E0
1.906478281E1,-3.817907810E0,-1.276708364E0,-1.426981211E0
1.908551666E1,2.932153225E0,-2.744006634E0,2.370157093E-1
1.910555781E1,4.689001560E0,-7.098253965E-1,6.597344577E-2
1.913546614E1,2.959031105E0,3.433062732E-1,-1.011592865E0
1.915554843E1,4.444655418E0,7.208209485E-2,2.321287990E-2
1.918387500E1,5.468465805E0,-1.067792416E0,9.162978828E-2
1.920402239E1,5.034751415E0,2.357939780E-1,-1.221730490E-3
1.922551770E1,4.797735691E0,2.431243658E-1,6.560692787E-1
1.924561198E1,4.547280788E0,-1.020144939E0,7.403686643E-1
1.926574843E1,3.489262342E0,-6.414085031E-1,-5.070181489E-1
1.929402968E1,1.660331726E0,-9.737191796E-1,-2.174680233E0
1.931571770E1,9.395107627E-1,-9.309586287E-1,-1.364672899E0
1.933620260E1,4.459316134E-1,8.613199592E-1,3.054326177E-1
1.936391093E1,-1.503950238E0,1.337794900E0,2.156354189E0
1.938574635E1,-3.112969160E0,1.007927656E0,2.607172728E0
1.941399531E1,-2.631607533E0,2.616946697E0,1.582140923E0
1.944706562E1,-3.031113386E0,3.362202168E0,-1.009149313E0
1.947385625E1,-3.282789707E0,1.803274155E0,-2.006081343E0
1.949451302E1,-5.408600807E0,-3.701843321E-1,-8.026769161E-1
1.951572343E1,-4.346917152E0,-2.701246023E0,-1.503950238E0
1.953617500E1,-4.335921288E0,-2.461786985E0,-9.737191796E-1
1.956387343E1,-4.221078873E0,-7.232644558E-1,2.406809032E-1
1.958404687E1,-3.457497120E0,1.837482572E0,6.829473376E-1
1.960553333E1,-1.787391663E0,2.798984528E0,8.881980777E-1
1.962579323E1,-6.853907704E-1,2.620611906E0,7.880161405E-1
1.965388281E1,3.262020350E-1,1.903456092E0,1.698205322E-1
1.967551614E1,1.010371089E0,1.540602088E0,-2.528982162E-1
1.969564479E1,6.230825186E-1,1.403768301E0,-3.604104817E-1
1.971575677E1,1.059240341E0,3.921754956E-1,2.602286041E-1
1.973609427E1,3.529579401E0,-9.236282110E-1,9.639453292E-1
1.976442864E1,3.791029692E0,-3.012787342E0,1.296256065E0
1.978551093E1,-2.262644768E0,-2.037846327E0,2.015855312E-1
1.980553698E1,-2.563190460E0,5.412266254E-1,-1.194852352E0
1.982555677E1,-8.330980301E0,3.064100027E0,-2.935818434E0
1.984573281E1,-2.689028740E0,-8.869763017E-1,-1.693318486E0
1.986575573E1,3.938858986E0,-1.484402537E0,1.403768301E0
1.989443281E1,5.117828846E0,-2.431243658E0,3.811798990E-1
1.991573229E1,6.298020363E0,-3.068986893E0,-4.520402849E-2
1.994778646E1,2.039068222E0,3.717725754E0,-1.578475714E0
1.996796823E1,3.020117760E0,5.485569835E-1,1.486845970E0
1.999444791E1,6.418972015E0,5.876523852E-1,1.095892191E0
2.001574166E1,3.502701283E0,-1.075122803E-1,-1.832595654E-2
2.003610521E1,2.500882387E0,-4.190535545E-1,-6.450737119E-1
2.006388333E1,1.648114443E0,-3.543018401E-1,-2.107485056E0
2.008553125E1,8.576548100E-1,-1.049466491E0,-1.425759435E0
2.010572812E1,1.298699498E0,-1.685988009E-1,-4.886921868E-2
2.013531198E1,-1.297477722E0,1.489289403E0,2.122145891E0
2.015551510E1,-2.778215170E0,5.412266254E-1,2.624277115E0
2.017554635E1,-2.559525251E0,9.175195694E-1,1.871691108E0
2.020388646E1,-2.441017389E0,3.200933933E0,2.101376355E-1
2.022395052E1,-2.836858273E0,2.499660492E0,-1.049466491E0
2.024448541E1,-3.187494755E0,1.203404546E0,-1.802052498E0
2.026571041E1,-2.587625027E0,1.491732955E0,-1.175304770E0
2.029406302E1,-5.461135387E0,-7.024950385E-1,9.871582389E-1
2.031576510E1,-3.870442152E0,-1.435533285E0,-5.387831330E-1
2.033622708E1,-3.462384224E0,-1.508837104E0,-3.762929738E-1
2.036403177E1,-3.172833920E0,1.883908391E0,3.860668242E-1
2.038551770E1,-2.273640394E0,3.017674208E0,1.298699498E0
2.040554271E1,-1.120326877E0,2.543642759E0,1.615127683E0
2.044661614E1,5.265658498E-1,1.339016557E0,6.927211881E-1
2.047379270E1,8.063421249E-1,8.772024512E-1,-5.742133036E-2
2.049395833E1,4.007275999E-1,8.271115422E-1,0.000000000E0
2.051576562E1,2.656042099E0,9.040805697E-1,9.004153609E-1
2.053633073E1,4.908913136E0,-7.599163651E-1,1.177748203E0
2.056378906E1,-1.684766293E0,-4.349360466E0,1.277930021E0
2.058384479E1,-2.596177340E0,-2.785545588E-1,-7.672467232E-1
2.060400052E1,-3.428175688E0,9.908233881E-1,-1.044579506E0
2.062556718E1,-6.516710281E0,-1.490511149E-1,-2.076941729E0
2.065384531E1,2.145358801E0,-1.503950238E0,-4.324925840E-1
2.067395312E1,3.492927313E0,2.968805134E-1,1.473406911E0
2.069412448E1,1.869247675E0,-1.853365183E0,8.527678847E-1
2.071573906E1,4.968777657E0,-1.296256065E0,1.577254057E0
2.073623489E1,7.929030895E0,-7.000515461E-1,-2.950479031E0
2.076389010E1,3.022561073E0,1.038470864E0,3.274237812E-1
2.078399271E1,5.141041756E0,1.668883801E0,1.883908391E0
2.080412656E1,6.732956409E0,5.070181489E-1,1.084896684E0
2.082576666E1,4.123340130E0,-1.387885809E0,-1.685988009E-1
2.085407552E1,1.775174379E0,-1.180191636E0,-1.780061245E0
2.087577135E1,3.640756905E-1,-1.797165513E0,-2.161241293E0
2.090405468E1,3.298672289E-2,-1.347568750E0,-8.002334833E-1
2.092555052E1,-1.073901057E0,2.712241709E-1,1.453859210E0
2.094805208E1,-2.516764879E0,7.086037099E-2,2.283414364E0
2.097376718E1,-2.345722437E0,3.775147200E-1,1.580919266E0
2.099402239E1,-2.583960056E0,2.481334686E0,7.318165302E-1
2.101576250E1,-2.878396988E0,2.261423111E0,-9.309586287E-1
2.103621406E1,-3.003013611E0,8.429940045E-2,-1.800830722E0
2.106379322E1,-2.397035122E0,-1.857030392E-1,-7.183775306E-1
2.108439687E1,-5.731137753E0,-1.563815027E-1,1.142318010E0
2.110565781E1,-3.479488373E0,-8.442157507E-1,1.441641897E-1
2.113548125E1,-2.586403370E0,-4.715879560E-1,-2.272418737E-1
2.115556146E1,-2.812423468E0,1.569923639E0,-5.143485069E-1
2.117648489E1,-2.145358801E0,2.052507162E0,3.298672289E-2
2.120381354E1,-1.021366715E0,1.657888293E0,5.253440738E-1
2.122408229E1,-1.966986060E-1,1.127657175E0,7.843509912E-1
2.124555781E1,5.448917747E-1,9.089674950E-1,2.419026345E-1
2.126576250E1,9.590584040E-1,6.988298297E-1,-2.736676335E-1
2.129401823E1,1.425759435E0,1.356120855E-1,1.209513173E-1
2.131575468E1,3.707952023E0,8.552113175E-2,1.428202868E0
2.133585416E1,3.874107361E0,-2.420248032E0,1.813048005E0
2.136380833E1,-2.493551970E0,-1.764178753E0,9.859364629E-1
2.138556927E1,-5.572312832E0,3.435506105E0,-1.510058880E0
2.141377916E1,-6.025574684E0,-5.375614166E-1,-2.311514139E0
2.144701198E1,4.779409409E0,3.701843321E-1,8.967501521E-1
2.147383073E1,5.698151112E0,-4.306600094E0,9.883799553E-1
2.149395989E1,6.001140118E0,-3.327993870E0,-4.776966274E-1
2.151577552E1,2.786767244E0,4.735427380E0,-2.459343433E0
2.153586614E1,2.899166346E0,1.099557400E0,1.732413769E0
2.156381510E1,7.920478821E0,-1.685988009E-1,2.007303238E0
2.158398020E1,6.064670086E0,-4.642575681E-1,-3.787364438E-2
2.160559375E1,2.632829189E0,-8.014551997E-1,-7.599163651E-1
2.163493072E1,1.809382796E0,-4.373795092E-1,-1.952325344E0
2.165555468E1,3.995058537E-1,-6.805038452E-1,-1.461189628E0
2.168381354E1,3.933972120E-1,-1.018923163E0,-6.438519359E-1
2.170554271E1,-7.831292152E-1,-4.972442985E-1,1.163087368E0
2.172556927E1,-2.263866663E0,-3.616322279E-1,2.616946697E0
2.174579218E1,-1.908342957E0,7.977899909E-1,2.725680590E0
2.177410312E1,-1.783726454E0,3.541796684E0,1.835039139E0
2.179438072E1,-2.340835571E0,3.335324287E0,3.726277947E-1
2.181576510E1,-2.725680590E0,1.313360214E0,-1.158200502E0
2.183591718E1,-2.399478674E0,1.528384805E0,-2.395813465E0
2.186402396E1,-5.690820694E0,2.345722467E-1,1.832595766E-1
2.188555104E1,-4.663345337E0,-1.440420270E0,2.211332172E-1
2.190574687E1,-3.582113743E0,-1.402546525E0,-3.616322279E-1
2.194847500E1,-3.218038082E0,1.794722080E0,-3.701843321E-1
2.196890937E1,-2.502104044E0,2.583960056E0,2.981022298E-1
2.199436614E1,-1.020144939E0,2.070833206E0,9.370672703E-1
2.201441041E1,-8.429940045E-2,1.518610954E0,9.297369123E-1
2.203535833E1,7.709119320E-1,9.407324791E-1,1.185078546E-1
2.205553229E1,1.148426652E0,3.176499307E-1,-1.991420686E-1
2.208394948E1,1.539380431E0,1.685988009E-1,1.637118906E-1
2.210411822E1,3.319441795E0,1.001819000E-1,7.379252315E-1
2.212551875E1,2.950479031E0,-2.182010651E0,1.056796908E0
2.214582500E1,-2.531425476E0,-2.976135492E0,6.414085031E-1
2.217395156E1,-2.856405735E0,1.896125674E0,-9.346238375E-1
2.219409843E1,-5.308418751E0,1.023810148E0,-7.550294399E-1
2.221442864E1,-1.536936879E0,-3.799581766E0,6.841690838E-2
2.223541406E1,3.153286457E0,-2.553416789E-1,-7.354817390E-1
2.225553333E1,1.637118816E0,7.538077235E-1,-2.736676335E-1
2.228408750E1,1.969429493E0,-9.150761366E-1,1.446528912E0
2.230553333E1,7.175222874E0,-2.375044107E0,3.665191308E-2
2.233534895E1,3.298672199E0,8.002334833E-1,-1.456302762E0
2.235551822E1,3.750712633E0,6.352998614E-1,1.080009699E0
2.237554739E1,5.087285519E0,1.037249207E0,6.340780854E-1
2.240436302E1,3.788586140E0,-8.283332586E-1,-4.324925840E-1
2.242553020E1,2.449569702E0,-1.166752577E0,-1.287703872E0
2.244711510E1,1.824043632E0,-1.503950238E0,-1.657888293E0
2.247384635E1,8.955284357E-1,-1.373225093E0,-6.609562039E-1
2.249436823E1,5.290092826E-1,9.309586287E-1,8.637634516E-1
2.251576823E1,-1.347568750E0,1.117883325E0,1.971872926E0
2.253622812E1,-3.180164337E0,-7.086037099E-2,2.113593817E0
2.256395937E1,-2.560747147E0,1.332907915E0,1.137431026E0
2.258555937E1,-2.532647371E0,2.356718063E0,-3.836233616E-1
2.261394687E1,-2.817310572E0,6.890559793E-1,-1.380555391E0
2.263545520E1,-3.710395336E0,1.690874934E0,3.579670191E-1
2.265556458E1,-5.346292496E0,1.158200502E0,1.784948230E0
2.268386666E1,-3.758043051E0,-1.527163088E-1,-8.539896011E-1
2.270397916E1,-3.506366491E0,-8.613199592E-1,-1.027475357E0
2.272401562E1,-3.448945045E0,4.532620013E-1,-4.129449129E-1
2.274406198E1,-2.576629639E0,1.902234316E0,3.714060783E-1
2.276576041E1,-1.159422159E0,1.556484580E0,8.332201838E-1
2.279414375E1,-2.247984111E-1,8.772024512E-1,9.761626720E-1
2.281576145E1,1.417207420E-1,8.393288255E-1,3.347541392E-1
2.283618854E1,4.361577928E-1,7.428121567E-1,-2.223549485E-1
2.286381823E1,8.710938096E-1,-5.571091175E-1,-3.029891551E-1
2.288383489E1,4.334699631E0,1.075122803E-1,4.349360466E-1
2.290384739E1,5.698151112E0,-7.086037099E-2,7.990117073E-1
2.292386354E1,2.841745138E0,-2.146580458E0,1.332907915E0
2.294759166E1,-3.422067165E0,9.443976283E-1,2.761110961E-1
2.297378437E1,-4.690223217E0,2.375044107E0,-1.607797265E0
2.299400833E1,-6.449515343E0,-1.352455616E0,-2.583960056E0
2.301579583E1,1.368338108E0,-2.205223560E0,-1.380555481E-1
2.303617968E1,4.991990566E0,-7.305948138E-1,1.472185254E0
2.306398281E1,3.490483999E0,-2.687807083E0,1.295034289E-1
2.308446302E1,5.018868923E0,-2.163684607E0,-1.663996935E0
2.310583229E1,3.126408339E0,2.362826824E0,-1.732413769E0
2.313548177E1,4.803844452E0,-1.029918790E0,9.920451641E-1
2.315555677E1,5.508782864E0,-8.319984674E-1,5.094615817E-1
2.318382083E1,3.671300173E0,-1.304808140E0,-3.017674387E-1
2.320402187E1,2.709798098E0,-2.041511536E0,-1.020144939E0
2.322574114E1,1.361007690E0,-1.363451242E0,-1.914451599E0
2.325379010E1,9.541714787E-1,-1.710422635E-1,-1.317025423E0
2.327387864E1,7.965682745E-1,5.803219676E-1,2.357939780E-1
2.329409479E1,-7.134906054E-1,3.371976018E-1,2.059837580E0
2.331577708E1,-1.346346974E0,1.478293836E-1,2.353052855E0
2.333623645E1,-1.589471340E0,1.301142931E0,1.726305127E0
2.336383906E1,-2.169793367E0,2.679255009E0,1.500285029E0
2.338412812E1,-3.324328661E0,2.189341068E0,2.871066630E-1
2.340555937E1,-3.093421459E0,1.721418262E0,-1.297477722E0
2.344724739E1,-5.523443699E0,8.368853927E-1,9.908233881E-1
2.347400312E1,-3.666413069E0,-2.602286041E-1,-3.323106766E-1
2.349438281E1,-3.606548309E0,-3.127630055E-1,-1.006705880E0
2.351583281E1,-3.606548309E0,8.112290502E-1,-7.806857824E-1
2.353587448E1,-2.913827181E0,2.271196842E0,2.321287990E-2
2.356408854E1,-1.528384805E0,2.017076969E0,9.016370773E-1
2.358577500E1,-4.398229718E-1,1.343903542E0,9.822713137E-1
2.361392448E1,2.028072625E-1,1.210734844E0,2.480112910E-1
2.363538802E1,3.017674387E-1,3.640756905E-1,-2.968805134E-1
2.365554895E1,7.232644558E-1,-8.051204085E-1,-4.031710625E-1
2.368409583E1,4.255287170E0,-6.010913849E-1,-1.954768784E-2
2.370575885E1,3.677408695E0,-1.701870561E0,6.365215778E-1
2.373536875E1,-3.077538967E0,8.649851680E-1,2.480112910E-1
2.375557395E1,-2.646268129E0,1.747074604E0,-7.696902156E-1
2.378405625E1,-6.829473495E0,-5.497786999E-1,-2.627942324E0
2.380405677E1,-1.457524419E0,-2.500882387E0,-4.056145251E-1
2.382575260E1,3.677408695E0,-6.047565937E-1,2.290744543E0
2.385406198E1,3.357315302E0,-2.025629044E0,7.049384713E-1
2.387408750E1,5.005429745E0,-4.040262699E0,-5.448917747E-1
2.389430156E1,4.949230194E0,5.057964325E-1,-5.447696209E0
2.391578229E1,2.252871037E0,2.333505154E-1,1.235169530E0
2.394880573E1,6.096435070E0,7.696902007E-2,1.070235848E0
2.397381406E1,3.786142826E0,-4.141666293E-1,-9.395107627E-1
2.399409635E1,3.028669834E0,-1.296256065E0,-7.916813493E-1
2.401571927E1,2.007303238E0,-1.588249564E0,-1.319468856E0
2.403624948E1,1.039692640E0,-1.676214218E0,-1.061683774E0
2.406387708E1,9.297369123E-1,-8.124507666E-1,-4.178318083E-1
2.408553750E1,-1.404990107E-1,9.370672703E-1,8.649851680E-1
2.410559583E1,-1.583362699E0,6.279694438E-1,1.661553383E0
2.413531718E1,-2.449569702E0,3.090977967E-1,2.144136906E0
2.415551770E1,-1.766622305E0,1.924225450E0,1.991420627E0
2.417560885E1,-2.365270138E0,3.948632956E0,9.724974632E-1
2.419563333E1,-2.772106409E0,3.291341782E0,-6.426302195E-1
2.421573802E1,-2.399478674E0,2.113593817E0,-1.546710730E0
2.423610677E1,-5.275432110E0,1.273043156E0,6.377432942E-1
2.426386770E1,-3.926641703E0,-1.342681766E0,-6.023131013E-1
2.428386927E1,-3.583335400E0,-1.996307611E0,-1.214400053E0
2.430387864E1,-3.556457520E0,-1.210734844E0,-9.737191796E-1
2.432547083E1,-2.847853661E0,1.466076612E0,-3.665191354E-3
2.434576666E1,-1.827708840E0,1.890017033E0,5.009095073E-1
2.437389583E1,-6.548475623E-1,1.549154282E0,5.962044597E-1
2.439447448E1,-1.722639948E-1,1.226617336E0,2.883283794E-1
2.441572291E1,3.677408695E-1,1.031140566E0,-4.214970171E-1
2.444675312E1,2.846632004E-1,1.185078546E-1,-7.269296050E-1
2.447377812E1,2.789210558E0,-8.356636167E-1,6.169738770E-1
2.449438177E1,4.208861351E0,-1.293812513E0,9.370672703E-1
2.451579114E1,-3.665191308E-2,-3.159394979E0,9.492845535E-1
2.453592031E1,-2.951700926E0,2.403143883E0,-7.293730974E-1
2.456381198E1,-4.094018936E0,3.309667826E0,-1.039692640E0
2.458409427E1,-4.959003925E0,-3.332880735E0,-1.860695481E0
2.460554218E1,1.490511149E-1,-1.188743711E0,-1.539380401E-1
2.462556979E1,3.488040447E0,2.247984111E-1,1.893682241E0
2.465401979E1,3.286454916E0,-2.984687567E0,1.154535294E0
2.467557395E1,5.894849300E0,-4.350582123E0,-1.714087844E0
2.470403073E1,1.484402537E0,1.993864179E0,-1.011592865E0
2.472555520E1,4.488637924E0,-7.086037099E-2,2.559525251E0
2.474577968E1,6.644991875E0,8.258898258E-1,1.522276163E0
2.476583281E1,4.805066109E0,6.108652428E-2,-6.047565937E-1
2.479402604E1,2.869844913E0,-8.161159754E-1,-8.808676600E-1
2.481578489E1,2.139250040E0,-1.158200502E0,-1.280373573E0
2.483616406E1,9.529497623E-1,-1.150870085E0,-1.150870085E0
2.486382031E1,5.607742667E-1,-1.980425119E0,-5.974261761E-1
2.488384739E1,7.086036801E-1,-5.351179242E-1,1.979203373E-1
2.490576145E1,-6.914994717E-1,-1.404990107E-1,1.579697490E0
2.494802448E1,-2.133141518E0,7.684684396E-1,2.057394028E0
2.497379895E1,-2.301740170E0,3.633426428E0,1.215621829E0
2.499403229E1,-2.442239285E0,3.062878370E0,-4.141666293E-1
2.501431822E1,-2.370157003E0,2.039068222E0,-1.580919266E0
2.503535885E1,-4.200309277E0,1.657888293E0,-2.541199327E-1
2.505554427E1,-5.013981819E0,-1.185078546E-1,7.476990223E-1
2.507556354E1,-3.534466267E0,-1.242499948E0,-7.342600226E-1
2.510402968E1,-3.457497120E0,-1.187522054E0,-1.210734844E0
2.512555885E1,-3.045773983E0,6.206390858E-1,-5.595525503E-1
2.514578593E1,-2.199114799E0,1.941329718E0,1.539380401E-1
2.517379375E1,-1.181413412E0,1.733635545E0,6.658431292E-1
2.519405781E1,-4.056145251E-1,1.364672899E0,6.169738770E-1
2.521576510E1,6.206390858E-1,8.148941994E-1,1.685988009E-1
2.523625781E1,1.036027431E0,-2.040289938E-1,-1.832595766E-1
2.526388177E1,1.742187619E0,-8.869763017E-1,5.742133036E-2
2.528437031E1,3.712838888E0,-8.234463334E-1,1.527163088E-1
2.530556823E1,3.419623613E0,-1.676214218E0,2.822197378E-1
2.533533229E1,-2.968805075E0,1.816713214E0,1.185078546E-1
2.535556302E1,-1.931555867E0,8.356636167E-1,-1.527163088E-1
2.538382552E1,-4.721988201E0,1.992642403E0,-7.110471129E-1
2.540446041E1,-1.864360690E0,-3.900985479E0,-6.340780854E-1
2.542554375E1,2.081828833E0,2.675589621E-1,-8.112290502E-1
2.544725468E1,2.163684607E0,3.237585723E-1,5.534439087E-1
2.547387500E1,2.908940315E0,-2.344500780E0,8.026769161E-1
2.549445520E1,5.419596195E0,-1.152091861E0,-4.996877611E-1
2.551576354E1,3.529579401E0,-8.552113548E-3,-1.910786510E0
2.553583125E1,3.236364126E0,-9.089674950E-1,4.544837475E-1
2.556402604E1,4.916243553E0,2.321287990E-2,4.300491214E-1
2.558405104E1,3.674965143E0,-3.005456924E-1,-6.108652353E-1
2.560555625E1,2.767219543E0,-1.155757070E0,-7.269296050E-1
2.562575000E1,1.913229942E0,-1.340238333E0,-1.160643935E0
2.565382604E1,8.038986325E-1,-1.731192112E0,-7.134906054E-1
2.567402552E1,5.876523852E-1,-8.625417352E-1,-1.637118906E-1
2.569556145E1,6.352998316E-2,8.772024512E-1,4.373795092E-1
2.571579010E1,-7.330383062E-1,4.178318083E-1,1.631010175E0
2.573612916E1,-1.809382796E0,-1.954768747E-1,2.149024010E0
2.576381093E1,-1.988977194E0,6.988298297E-1,1.771509171E0
2.578397604E1,-2.224771261E0,3.331659079E0,9.443976283E-1
2.580401406E1,-2.701246023E0,3.791029692E0,-6.707300544E-1
2.582555000E1,-2.211332083E0,1.969429493E0,-1.600466967E0
2.584566093E1,-2.482556343E0,1.271821380E0,-4.984660447E-1
2.586579010E1,-5.734802723E0,7.354817390E-1,1.722639918E0
2.589439479E1,-3.646865368E0,-6.646213531E-1,-1.137431026E0
2.591576354E1,-3.321885109E0,-1.370781541E0,-1.043357849E0
2.594779635E1,-2.576629639E0,1.960877419E0,-4.642575979E-2
2.597382187E1,-1.425759435E0,2.335948706E0,7.745771408E-1
2.599429218E1,-7.257078886E-1,1.958433986E0,9.053022861E-1
2.601583020E1,-4.520402849E-2,2.128254414E0,3.909537494E-1
2.603592552E1,6.169738770E-1,1.872912765E0,1.099557430E-2
2.606399218E1,9.773843884E-1,-9.773843922E-3,3.420845419E-2
2.608559166E1,3.386636972E0,-9.260717034E-1,4.300491214E-1
2.610575572E1,4.340808392E0,-2.707354784E0,3.872885704E-1
2.613559479E1,-4.972442985E-1,-2.939483404E0,6.951646209E-1
2.616382343E1,-3.036000252E0,2.306627035E0,8.063421398E-2
2.618401562E1,-3.952298164E0,3.072652102E0,-7.440338731E-1
2.620447968E1,-3.199712038E0,-3.470936298E0,-9.896016717E-1
2.622576614E1,2.139250040E0,-1.264491081E0,-9.651670456E-1
2.625379010E1,3.033556700E0,-1.478293836E-1,-1.185078546E-1
2.627400885E1,2.130697966E0,-1.639562249E0,-8.368853927E-1
2.629405573E1,3.268129110E0,1.466076523E-1,-6.817256212E-1
2.631578906E1,4.282165527E0,-2.773328125E-1,-2.345722467E-1
2.633622187E1,3.791029692E0,-4.043927789E-1,5.619960278E-2
2.636380937E1,4.357912540E0,-8.552113548E-3,6.438519359E-1
2.638388072E1,4.389677525E0,-4.386012256E-1,4.569272101E-1
2.640553802E1,3.336545944E0,-9.016370773E-1,-6.340780854E-1
2.642555573E1,2.261423111E0,-9.700539708E-1,-1.292590857E0
2.644683593E1,1.203404546E0,-1.314581990E0,-1.156978726E0
2.646712552E1,7.159340382E-1,-1.530828238E0,-3.530800939E-1
2.649410520E1,2.284636050E-1,5.277875662E-1,9.028587937E-1
2.651573958E1,-1.595579982E0,1.408655286E0,1.974316478E0
2.653618541E1,-2.693915606E0,7.476990223E-1,2.355496407E0
2.656411666E1,-2.107485056E0,2.102598190E0,1.940107942E0
2.658572291E1,-2.911383629E0,3.835011959E0,-2.761110961E-1
2.661390677E1,-2.742784977E0,1.629788399E0,-1.734857321E0
2.663534062E1,-3.213151217E0,6.389650106E-1,-1.352455616E0
2.665553645E1,-5.271767139E0,-8.283332586E-1,3.555235565E-1
2.667553645E1,-4.048814774E0,-1.561371565E0,-6.279694438E-1
2.669565208E1,-3.486818790E0,-1.425759435E0,-8.881980777E-1
2.671580937E1,-3.197268724E0,-2.186897546E-1,-6.218608022E-1
2.673610364E1,-2.513099670E0,1.620014548E0,-1.466076523E-1
2.676407135E1,-1.341460109E0,2.390926600E0,4.838052690E-1
2.678552552E1,-1.576032341E-1,1.522276163E0,7.953465581E-1
2.680552604E1,6.035348773E-1,1.086118340E0,4.960225821E-1
2.682576718E1,1.187522054E0,9.627236128E-1,1.319468915E-1
2.685387395E1,8.918632269E-1,2.370157093E-1,-1.172861233E-1
2.687398906E1,1.397659659E0,-6.133086681E-1,1.857030392E-1
2.689408437E1,3.606548309E0,-1.226617336E0,4.715879560E-1
2.691580677E1,3.362202168E0,-2.629163980E0,6.108652353E-1
2.694775312E1,-3.145956039E0,1.650557876E0,-2.394591719E-1
2.697446041E1,-5.755572319E0,4.101349354E0,-1.127657175E0
2.699446875E1,-4.723209858E0,-1.860695481E0,-1.153313518E0
2.701573072E1,2.486221552E0,-2.321287870E0,1.450194120E0
2.703622968E1,5.365840435E0,-6.963863969E-1,1.567480206E0
2.706392187E1,3.980397940E0,-2.195449591E0,-2.431243658E-1
2.708445520E1,5.097059727E0,-1.552819371E0,-4.321260452E0
2.710553750E1,3.097086668E0,1.869247556E-1,3.176499158E-2
2.713540156E1,5.260771275E0,-1.362229466E0,1.472185254E0
2.715553177E1,4.991990566E0,-4.654793143E-1,-5.192354321E-1
2.718431354E1,3.211929321E0,-7.403686643E-1,-5.338962078E-1
2.720552291E1,2.482556343E0,-1.607797265E0,-1.374446750E0
2.723536145E1,1.088561893E0,-1.616349459E0,-1.177748203E0
2.725551041E1,1.059240341E0,-1.467298269E0,-3.995058537E-1
2.727553489E1,5.937610269E-1,6.670648456E-1,9.297369123E-1
2.729560885E1,-9.285151362E-1,1.318247199E0,2.376265764E0
2.731572812E1,-2.323731422E0,9.773843884E-1,2.712241650E0
2.733613958E1,-2.157576084E0,1.337794900E0,2.305405378E0
2.736430312E1,-2.539977551E0,3.645643711E0,5.888741016E-1
2.738553802E1,-2.871066570E0,2.828305960E0,-1.150870085E0
2.741384166E1,-2.790432453E0,1.461189628E0,-2.415361166E0
2.744705520E1,-4.954117298E0,-1.737300754E0,-2.761110961E-1
2.747383229E1,-3.969402313E0,-1.853365183E0,-8.649851680E-1
2.749400729E1,-4.065918922E0,-1.330464482E0,-1.685988009E-1
2.751577552E1,-3.036000252E0,1.464854836E0,6.743952036E-1
2.753628124E1,-2.056172371E0,2.443460941E0,9.065240026E-1
2.756385364E1,-6.878342628E-1,2.517986536E0,8.075638413E-1
2.758556510E1,2.247984111E-1,1.676214218E0,3.310889602E-1
2.761378645E1,1.007927656E0,9.089674950E-1,-4.593706429E-1
2.763534687E1,8.124507666E-1,5.534439087E-1,-5.619960427E-1
2.765554843E1,1.279151797E0,-1.832595766E-1,-2.235766798E-1
2.767555052E1,2.890614271E0,-1.354899049E0,1.905899495E-1
2.769558072E1,2.737897873E0,-2.382374525E0,5.558873415E-1
2.771578489E1,-1.210734844E0,-3.467271090E0,1.045801282E0
2.773592656E1,-2.383596182E0,6.230825558E-2,-2.981022298E-1
2.776381979E1,-6.533814430E0,3.806912184E0,-2.031737804E0
2.778385729E1,-3.814242601E0,-2.117259026E0,-1.058018565E0
2.780387239E1,2.301740170E0,-2.645046473E0,1.759291887E0
2.782400000E1,5.500230789E0,-5.864306167E-2,1.111774683E0
2.784443958E1,4.339586735E0,-3.042108774E0,-5.400048494E-1
2.786577187E1,6.535036087E0,-3.579670191E-1,-4.952895164E0
2.789405000E1,2.891835928E0,7.061601877E-1,4.703662395E-1
2.791575520E1,5.448917866E0,-1.177748203E0,2.058615923E0
2.794787708E1,4.383568764E0,-3.860668242E-1,-7.867944241E-1
2.796804427E1,3.098308563E0,-9.969320893E-1,-4.312708676E-1
2.799446979E1,2.032959461E0,-9.724974632E-1,-1.759291887E0
2.801574218E1,1.351233959E0,-9.847147465E-1,-1.659109950E0
2.803591250E1,1.076344490E0,-7.745771408E-1,-3.152064681E-1
2.806385000E1,-4.972442985E-1,1.141096234E0,1.448972344E0
2.808556614E1,-2.389704704E0,1.368338168E-1,1.832595706E0
2.811380260E1,-1.892460465E0,-1.172861233E-1,1.288925648E0
2.813492812E1,-1.968207836E0,1.507615447E0,1.296256065E0
2.815554114E1,-2.814867020E0,2.201558352E0,6.230825186E-1
2.817556718E1,-3.005456924E0,2.135584831E0,-3.567453027E-1
2.819564635E1,-2.483778000E0,2.509434462E0,-1.006705880E0
2.821576979E1,-3.876550674E0,2.274862051E0,-2.150245607E-1
2.823652552E1,-5.369505405E0,1.499063253E0,8.197811246E-1
2.826757395E1,-3.599217892E0,1.343903542E-1,-8.478809595E-1
2.829411510E1,-3.874107361E0,4.703662395E-1,-1.005484223E0
2.831576145E1,-3.109303951E0,1.004262447E0,-5.717698336E-1
2.833613489E1,-1.554041147E0,3.750712574E-1,3.591887653E-1
2.836385000E1,-3.396410644E-1,5.888741016E-1,8.381071091E-1
2.838575312E1,3.249803185E-1,8.246680498E-1,4.080579877E-1
2.841385572E1,7.660250068E-1,1.502728462E-1,-4.752531648E-1
2.844646041E1,9.065240026E-1,-3.726277947E-1,-7.391469479E-1
2.847396354E1,3.579670191E0,-5.009095073E-1,4.935791194E-1
2.849425729E1,3.701843262E0,-9.981538057E-1,9.321803451E-1
2.851576614E1,-2.105041504E0,-1.831373930E0,9.101892114E-1
2.853585364E1,-2.515542984E0,4.398229718E-1,-4.544837475E-1
2.856382291E1,-4.533841610E0,2.426356792E0,-7.330383062E-1
2.858436822E1,-3.120299578E0,-3.222924948E0,-1.264491081E0
2.860554166E1,2.820975542E0,-3.200933933E-1,4.153883457E-2
2.862578125E1,3.447723389E0,-5.913175344E-1,2.516764700E-1
2.865402343E1,3.411071539E0,-2.842966795E0,3.396410644E-1
2.867555989E1,5.093394279E0,-1.279151797E0,-2.076941729E0
2.870380625E1,3.904650688E0,-5.742133260E-1,-1.100779176E0
2.872402187E1,4.982216835E0,-3.921754956E-1,1.061683774E0
2.874403593E1,5.722585678E0,2.846632004E-1,8.649851680E-1
2.876576250E1,3.952298164E0,-5.057964325E-1,-4.178318083E-1
2.879456145E1,2.885727406E0,-1.015258074E0,-9.077457190E-1
2.881575520E1,1.628566742E0,-1.125213742E0,-1.237612963E0
2.883588906E1,9.443976283E-1,-1.142318010E0,-5.522221923E-1
2.886398333E1,-2.284636050E-1,9.492845535E-1,1.060461998E0
2.888553802E1,-1.952325344E0,1.397659659E0,2.575407743E0
2.890556718E1,-2.728124142E0,1.629788399E0,2.454456568E0
2.894808177E1,-2.720793724E0,3.048217535E0,4.972442985E-1
2.897375416E1,-3.411071539E0,2.112371922E0,-8.319984674E-1
2.899410729E1,-3.263242006E0,1.423316002E0,-1.660331726E0
2.901577708E1,-5.057964325E0,3.860668242E-1,-6.743952036E-1
2.903617343E1,-5.640729427E0,-9.847147465E-1,-3.726277947E-1
2.906382812E1,-4.412890434E0,-7.464773059E-1,-1.015258074E0
2.908392135E1,-3.844785690E0,-5.864306167E-2,-9.798278213E-1
2.910404062E1,-3.133738756E0,1.424537778E0,-6.328563690E-1
2.912555937E1,-1.798387289E0,1.607797265E0,2.834414840E-1
2.914575104E1,-6.951646209E-1,1.042136073E0,7.892378569E-1
2.916575729E1,1.209513173E-1,8.625417352E-1,6.230825186E-1
2.919405156E1,9.810495973E-1,1.282817006E0,-6.841690838E-2
2.921575833E1,1.249830246E0,1.038470864E-1,-4.239404798E-1
2.923613593E1,2.089159012E0,-1.287703872E0,1.832595654E-2
2.926387812E1,4.866152287E0,-1.456302762E0,7.489207983E-1
2.928401093E1,4.150218487E0,-2.477669477E0,8.454374671E-1
2.930556666E1,-2.960253000E0,-6.988298297E-1,1.649336070E-1
2.933539635E1,-4.603480339E0,3.038443565E0,-5.021312237E-1
2.935565989E1,-4.411668777E0,-2.189341068E0,-2.981022298E-1
2.938385208E1,3.273015976E0,-1.563815027E-1,-3.469714522E-1
2.940386510E1,4.381125450E0,-6.157521605E-1,-1.551597714E-1
2.942396822E1,2.675589800E0,-3.556457520E0,-4.630358517E-1
2.944734895E1,3.726277828E0,-1.893682182E-1,-1.354899049E0
2.947379947E1,4.678006172E0,-9.004153609E-1,-1.062905550E0
2.949457916E1,4.423885822E0,-6.145304441E-1,1.221730467E-2
2.951586145E1,5.222897530E0,-8.674286306E-2,1.106887817E0
2.953616770E1,4.652349472E0,-6.462954283E-1,2.101376355E-1
2.956430000E1,2.948035717E0,-1.142318010E0,-8.087855577E-1
2.958576614E1,1.392772794E0,-1.362229466E0,-1.865582466E0
2.961381250E1,6.548475623E-1,-2.090380907E0,-1.083674908E0
2.963565156E1,-3.909537494E-1,-1.380555481E-1,3.726277947E-1
2.966395312E1,-1.579697490E0,1.794722080E0,2.251649141E0
2.968400000E1,-2.587625027E0,1.962099195E0,2.453234673E0
2.970574270E1,-2.300518513E0,2.378709316E0,1.977981687E0
2.973562552E1,-3.025004625E0,2.884505749E0,-6.902776957E-1
2.976409010E1,-2.597398996E0,1.543045640E0,-2.193006277E0
2.978553593E1,-3.996280432E0,2.602286041E-1,-1.183856845E0
2.980556718E1,-5.502674103E0,-1.026253581E0,4.031710625E-1
2.982575104E1,-3.918089628E0,-1.368338108E0,-5.412266254E-1
2.984581562E1,-3.351206779E0,-7.733553648E-1,-6.511823535E-1
2.986597604E1,-3.131295204E0,1.209513187E0,-4.825835228E-1
2.989405208E1,-2.164906502E0,2.373822212E0,3.408628106E-1
2.991448541E1,-1.111774683E0,2.107485056E0,8.197811246E-1
2.994892708E1,2.247984111E-1,1.467298269E0,5.412266254E-1
2.997408333E1,9.175195694E-1,1.005484223E0,-2.089159042E-1
2.999410520E1,8.087855577E-1,1.954768784E-2,-2.663372457E-1
3.001571510E1,2.384817839E0,-5.962044597E-1,5.033529401E-1
3.003633541E1,3.966958761E0,-1.809382796E0,6.817256212E-1
3.006409791E1,-7.696902007E-2,-3.122743130E0,6.279694438E-1
3.008553802E1,-2.344500780E0,1.076344490E0,-2.736676335E-1
3.010560520E1,-1.558928132E0,1.453859210E0,-4.544837475E-1
3.013580260E1,-3.973067522E0,-5.925392509E-1,-6.218608022E-1
3.016391145E1,2.553416729E0,-2.273640394E0,-7.367034554E-1
3.018572239E1,2.125811100E0,-1.673770696E-1,-2.382374406E-1
3.021384114E1,1.440420270E0,-1.222952247E0,4.508185387E-1
3.023540572E1,5.200906754E0,-1.637118816E0,2.162462920E-1
3.025584322E1,6.714630604E0,-3.326771975E0,-2.035403013E0
3.028388958E1,3.860668182E0,3.127630055E-1,2.284636050E-1
3.030409375E1,4.460537910E0,1.297477722E0,1.058018565E0
3.032447291E1,4.701219082E0,1.038470864E-1,4.691444933E-1
3.034574427E1,3.226590157E0,-1.086118340E0,-7.648032904E-1
3.036575677E1,2.072054863E0,-1.728748560E0,-1.601688623E0
3.039412656E1,7.171558142E-1,-2.422691584E0,-1.216843605E0
3.041573125E1,-2.565634064E-2,-4.190535545E-1,1.246165112E-1
3.044640312E1,-9.028587937E-1,2.056172371E0,2.437352180E0
3.047439062E1,-2.412917614E0,4.459316134E-1,2.574186087E0
3.049554270E1,-2.548529863E0,2.036624670E0,1.714087844E0
3.051579010E1,-2.884505749E0,3.450166941E0,3.152064681E-1
3.053590937E1,-2.829527855E0,2.053728819E0,-1.171639562E0
3.056382083E1,-3.401297569E0,1.053131700E0,-1.860695481E0
3.058383802E1,-5.520999908E0,4.141666293E-1,5.852088928E-1
3.060396041E1,-4.236961365E0,-1.175304770E0,-3.762929738E-1
3.062412031E1,-3.871663809E0,-1.025031924E0,-9.150761366E-1
3.064580833E1,-3.965737104E0,2.247984111E-1,-6.988298297E-1
3.067399374E1,-3.092199802E0,2.063502789E0,1.270599663E-1
3.069555000E1,-1.842369556E0,1.872912765E0,8.258898258E-1
3.071573385E1,-1.005484223E0,1.345125198E0,1.011592865E0
3.073592760E1,-1.490511149E-1,7.269296050E-1,6.243042946E-1
3.076388437E1,7.916813493E-1,4.838052690E-1,-1.185078546E-1
3.078576354E1,7.049384713E-1,3.921754956E-1,-2.822197378E-1
3.081377656E1,2.102598190E0,-1.966986060E-1,1.478293836E-1
3.083497239E1,3.965737104E0,-1.368338108E0,1.673770696E-1
3.085556718E1,1.605353832E0,-1.958433986E0,1.038470864E-1
3.088386510E1,-1.899790883E0,5.436700583E-1,-7.232644558E-1
3.090577291E1,-3.365867376E0,1.677435994E0,-1.244943380E0
3.094839739E1,-4.202752709E-1,-2.389704704E0,-4.984660447E-1
3.097376562E1,2.411695957E0,-7.733553648E-1,1.048244715E0
3.099415104E1,1.558928132E0,-2.225992918E0,6.059783101E-1
3.101575520E1,4.075692654E0,-1.576032281E0,5.094615817E-1
3.103625260E1,7.783644676E0,-2.257757902E0,-4.268726349E0
3.106382656E1,2.597398996E0,1.109331250E0,-2.382374406E-1
3.108435625E1,5.121494293E0,3.775147200E-1,2.068389654E0
3.110567552E1,5.597969055E0,5.326744914E-1,-1.111774743E-1
3.113545104E1,3.816685915E0,-1.726305127E0,-4.618141055E-1
3.115556406E1,2.312735796E0,-2.441017389E0,-1.198517561E0
3.117556875E1,1.149648428E0,-2.561968803E0,-1.434311628E0
3.119558958E1,9.260717034E-1,-1.954768777E0,-9.529497623E-1
3.121576145E1,3.652974069E-1,4.923573732E-1,2.125810981E-1
3.123586197E1,-1.064127207E0,1.341460109E0,1.696983576E0
3.126384791E1,-2.842966795E0,6.853907704E-1,2.492330074E0
3.128407760E1,-2.466673851E0,1.016479731E0,2.350609541E0
3.130556927E1,-2.486221552E0,4.163657665E0,1.491732955E0
3.132558072E1,-2.784323692E0,3.502701283E0,-2.761110961E-1
3.134584270E1,-2.701246023E0,1.464854836E0,-1.329242706E0
3.137379114E1,-3.745825529E0,1.098335743E0,-1.412320375E0
3.139399531E1,-5.009094715E0,-1.077566266E0,-2.455678284E-1
3.141579114E1,-3.863111734E0,-1.518610954E0,-7.269296050E-1
3.144693697E1,-3.362202168E0,1.111774683E0,-2.052507252E-1
3.147385052E1,-2.756223917E0,2.968805075E0,2.260201424E-1
3.149410624E1,-1.912008166E0,2.455678225E0,4.789183438E-1
3.151574791E1,-6.279694438E-1,1.512502313E0,5.485569835E-1
3.153625000E1,3.946189284E-1,6.756169796E-1,3.347541392E-1
3.156386510E1,1.380555391E0,-2.797762752E-1,-1.270599663E-1
3.158556458E1,1.001819015E0,-1.178969860E0,-4.862487316E-1
3.161387343E1,2.364048481E0,-1.115439892E0,-8.185594529E-2
3.163498437E1,3.736051798E0,-8.552113175E-1,2.797762752E-1
3.165554479E1,1.863138914E0,-1.251052022E0,6.096435189E-1
3.167554531E1,-1.663996935E0,-3.909537569E-2,2.761110961E-1
3.169563645E1,-1.663996935E0,1.148426652E0,-1.192408919E0
3.171577864E1,-4.995656013E0,2.119702339E0,-1.591914773E0
3.173616197E1,-2.906496763E0,-4.300491333E0,-4.618141055E-1
3.176402447E1,3.065321684E0,-1.512502313E0,1.550375938E0
3.178554114E1,3.100751877E0,-5.986479521E-1,-2.443460980E-3
3.180555937E1,2.979800701E0,-2.691472292E0,1.099557430E-2
3.183491979E1,5.681046486E0,-1.230282545E0,-2.807536602E0
3.185555625E1,2.575407743E0,2.736676335E-1,-2.406809032E-1
3.188403177E1,4.625471592E0,4.410446882E-1,1.572367072E0
3.190408697E1,4.774522781E0,-7.330382708E-3,3.995058537E-1
3.192556718E1,2.818532228E0,-1.207069755E0,-2.101376355E-1
3.194796614E1,2.076941729E0,-1.659109950E0,-9.126326442E-1
3.197377760E1,1.025031924E0,-1.645670891E0,-1.347568750E0
3.199457395E1,8.845328689E-1,-1.813048005E0,-5.534439087E-1
3.201577395E1,7.086036801E-1,3.127630055E-1,1.273043156E0
3.203592864E1,-4.972442985E-1,9.639453292E-1,2.271196842E0
3.206404791E1,-2.045176744E0,7.403686643E-1,1.819156647E0
3.208555729E1,-2.174680233E0,2.194227934E0,1.084896684E0
3.210586926E1,-2.646268129E0,3.260798693E0,1.343903504E-2
3.213491770E1,-2.774549961E0,1.359786034E0,-1.667662144E0
3.215554166E1,-2.537534237E0,7.867944241E-1,-1.600466967E0
3.217556458E1,-5.397605419E0,4.459316134E-1,4.349360466E-1
3.220384791E1,-3.734830141E0,-8.393288255E-1,-7.599163651E-1
3.222480312E1,-3.596774578E0,-4.178318083E-1,-1.125213742E0
3.224556406E1,-4.059810162E0,1.037249207E0,-5.644394755E-1
3.226574270E1,-3.409849644E0,1.688431501E0,1.319468915E-1
3.229435572E1,-1.683544636E0,1.169196010E0,8.356636167E-1
3.231578906E1,-4.935791194E-1,9.407324791E-1,9.859364629E-1
3.233615208E1,2.712241709E-1,7.733553648E-1,6.230825186E-1
3.236399114E1,1.252273679E0,3.579670191E-1,-3.298672289E-2
3.238411041E1,1.351233959E0,4.740314186E-1,-6.475171447E-2
3.240553645E1,1.557706356E0,4.789183438E-1,2.003637999E-1
3.242555989E1,2.840523243E0,-6.768386960E-1,3.714060783E-1
3.244721145E1,2.911383629E0,-1.772730947E0,5.424483418E-1
3.247377552E1,-1.202182770E0,-1.334129691E0,5.045746565E-1
3.249402031E1,-2.962696314E0,7.086037099E-2,-2.333505154E-1
3.251577395E1,-3.296228886E0,-2.282192469E0,-6.157521605E-1
3.253585572E1,-2.748893499E-1,-4.386012256E-1,-1.622458100E0
3.256384583E1,2.704911232E0,-1.359786034E0,4.557054639E-1
3.258575729E1,2.703689575E0,-3.238807440E0,5.778785348E-1
3.261379479E1,4.519181252E0,-6.548475623E-1,3.078760803E-1
3.263532968E1,4.720766544E0,4.202752709E-1,-2.321287870E0
3.265556562E1,2.967583418E0,7.562511563E-1,-2.932153083E-2
3.267559114E1,4.697553635E0,-3.359758854E-1,1.798387289E0
3.270381145E1,4.565606594E0,-4.838052690E-1,1.771509200E-1
3.272387083E1,3.100751877E0,-1.259604096E0,-6.389650106E-1
3.274445624E1,2.295631647E0,-1.749518037E0,-1.266934514E0
3.276579062E1,1.225395679E0,-1.661553383E0,-1.729970336E0
3.279403593E1,1.516167521E0,-9.285151362E-1,-3.824016452E-1
3.281576197E1,2.419026345E-1,9.663888216E-1,1.413542151E0
3.283613072E1,-1.259604096E0,2.907718420E-1,1.722639918E0
3.286405156E1,-2.508212566E0,4.935791194E-1,1.626123309E0
3.288555729E1,-2.558303595E0,2.006081343E0,1.188743711E0
3.290556041E1,-3.075095654E0,2.653598547E0,-5.717698336E-1
3.292556458E1,-2.780658484E0,2.454456568E0,-1.568701982E0
3.294851354E1,-3.414736748E0,1.962099195E0,-1.111774683E0
3.296872968E1,-5.254662991E0,1.003040671E0,3.921754956E-1
3.299447291E1,-3.760486364E0,-1.243721604E0,-1.251052022E0
3.301450260E1,-3.981619596E0,-6.035348773E-1,-1.284038782E0
3.303538020E1,-3.963293552E0,7.709119320E-1,-5.778785348E-1
3.305553229E1,-3.037221909E0,1.409876943E0,3.200933933E-1
3.307553854E1,-1.925447226E0,1.293812513E0,8.271115422E-1
3.309558385E1,-1.039692640E0,1.240056396E0,9.053022861E-1
3.311571718E1,-3.115412593E-1,1.088561893E0,6.768386960E-1
3.313620104E1,5.290092826E-1,6.719517708E-1,2.687807009E-2
3.316410312E1,1.004262447E0,8.466592431E-1,-4.276056588E-1
3.318573854E1,8.381071091E-1,1.119105101E0,-2.492330223E-1
3.321393124E1,2.748893499E0,-4.569272101E-1,2.480112910E-1
3.323533333E1,2.381152630E0,-2.228436470E0,6.731734872E-1
3.325558593E1,-1.414763927E0,-2.273640394E0,5.326744914E-1
3.327562135E1,-3.172833920E0,4.789183438E-1,-1.006705880E0
3.329576927E1,-4.043927670E0,7.489207983E-1,-1.161865711E0
3.332406926E1,-1.400103092E0,-1.288925648E0,-8.075638413E-1
3.334453437E1,2.327396631E0,-8.698720932E-1,7.562511563E-1
3.336573385E1,3.115412712E0,-3.076317310E0,6.267477274E-1
3.339406770E1,4.521624565E0,-2.519208193E0,4.850269854E-1
3.341413176E1,6.295577049E0,-1.905899495E-1,-4.427551270E0
3.344709635E1,3.528357506E0,-2.431243658E-1,1.330464482E0
3.347411041E1,5.722585678E0,1.710422710E-2,1.369559884E0
3.349457239E1,4.152661800E0,-3.176499158E-2,-5.424483418E-1
3.351577239E1,2.598620653E0,-7.403686643E-1,-5.656611919E-1
3.353611041E1,2.169793367E0,-1.496619821E0,-1.119105101E0
3.356393489E1,6.939429045E-1,-2.317622662E0,-1.368338108E0
3.358556614E1,8.087855577E-1,-3.065321684E0,-8.344419003E-1
3.361381822E1,7.171558142E-1,1.825265288E0,1.688431501E0
3.363492239E1,-1.429424644E0,1.560149789E0,2.526538610E0
3.365554635E1,-2.377487421E0,9.443976283E-1,2.127032757E0
3.368382135E1,-2.592512131E0,3.165503740E0,5.778785348E-1
3.370383854E1,-2.960253000E0,2.808758259E0,-1.126435518E0
3.372404687E1,-3.000570059E0,1.491732955E0,-2.119702339E0
3.374430572E1,-3.464827538E0,1.615127683E0,-1.398881435E0
3.376577239E1,-5.847201824E0,1.404990107E-1,5.778785348E-1
3.379440260E1,-4.185648441E0,-1.303586364E0,-1.213178396E0
3.381575729E1,-4.050036430E0,-8.796459436E-1,-1.395216227E0
3.383617291E1,-3.717725754E0,1.051909924E0,-6.988298297E-1
3.386382604E1,-2.294409752E0,1.725083470E0,5.583308339E-1
3.388389895E1,-1.324355841E0,1.018923163E0,9.688322544E-1
3.390398333E1,-3.396410644E-1,5.864306092E-1,8.869763017E-1
3.392558281E1,1.092227101E0,5.375614017E-2,3.237585723E-1
3.394737968E1,2.205223560E0,-8.038986325E-1,-7.696902007E-2
3.397393645E1,2.445904493E0,-2.809980139E-2,-3.213151097E-1
3.399435781E1,2.370157003E0,1.209513187E0,-2.675589621E-1
3.401574114E1,3.532022715E0,9.395107627E-1,7.086037099E-2
3.403627031E1,1.776396155E0,-2.199114859E-1,4.276056588E-1
3.406384843E1,-3.238807440E0,-4.361577928E-1,-3.017674387E-1
3.408413281E1,-4.163657665E0,1.363451242E0,-7.513642311E-1
3.410555416E1,-4.910134792E0,-1.887573600E0,-4.862487316E-1
3.413542552E1,2.046398640E0,-5.766567588E-1,-7.990117073E-1
3.415554322E1,2.990796089E0,1.502728462E0,2.174680233E-1
3.417556562E1,2.488664865E0,-3.704286814E0,8.222246170E-1
3.420402083E1,4.508185387E0,-1.791056871E0,-2.736676335E-1
3.422403281E1,4.280943394E0,1.042136073E0,-2.510656118E0
3.424405676E1,2.795319319E0,1.260825872E0,-5.155702829E-1
3.426576614E1,5.197241306E0,2.223549485E-1,1.798387289E0
3.429448072E1,5.198462963E0,2.504547536E-1,2.101376355E-1
3.431576562E1,3.022561073E0,1.612684280E-1,-8.491026759E-1
3.433589166E1,2.517986536E0,-8.197811246E-1,-6.145304441E-1
3.436401822E1,1.310916781E0,-1.759291887E0,-1.167974353E0
3.438574583E1,2.504547536E-1,-3.121521473E0,-9.676105380E-1
3.441379999E1,3.078760803E-1,-5.619960427E-1,3.750712574E-1
3.444797291E1,-1.955990434E0,1.538158655E0,2.196671486E0
3.447400989E1,-2.354274511E0,1.626123309E0,1.541823864E0
3.449554479E1,-2.682920218E0,2.962696314E0,9.040805697E-2
3.451584687E1,-2.720793724E0,1.951103568E0,-1.428202868E0
3.453620624E1,-2.575407743E0,8.356636167E-1,-1.963320851E0
3.456382447E1,-5.194797993E0,3.738495111E-1,6.169738770E-1
3.458383854E1,-3.878994226E0,-1.831373930E0,-3.103195429E-1
3.460438854E1,-3.483153582E0,-1.923003793E0,-4.728097022E-1
3.462576197E1,-3.152064562E0,-5.583308339E-1,-5.229006410E-1
3.465380885E1,-2.293188095E0,1.799608946E0,2.040289938E-1
3.467428906E1,-1.499063253E0,2.505769253E0,6.841690540E-1
3.469554791E1,-4.056145251E-1,2.302961826E0,9.920451641E-1
3.471578645E1,3.433062732E-1,1.677435994E0,7.232644558E-1
3.473625312E1,9.285151362E-1,1.111774683E0,2.064724565E-1
3.476383385E1,1.420872569E0,6.255260110E-1,1.808161139E-1
3.478386614E1,2.001194477E0,5.583308339E-1,7.574728727E-1
3.480396302E1,2.864958048E0,-1.613905907E0,7.037167549E-1
3.482556718E1,4.960225821E-1,-4.159992218E0,6.670648456E-1
3.485376406E1,-3.566231251E0,1.490511179E0,1.453859210E-1
3.487384895E1,-2.883283854E0,2.291966438E0,-2.186897546E-1
3.489441093E1,-3.900985479E0,-3.909537569E-2,-4.948008358E-1
3.491574114E1,8.038986325E-1,-2.317622662E0,-1.017701507E0
3.494801718E1,2.344500780E0,4.776966274E-1,-5.180137157E-1
3.497399322E1,2.337170362E0,-1.660331726E0,2.382374406E-1
3.499401979E1,4.440990448E0,-5.167919993E-1,1.415985584E0
3.501578958E1,5.364618301E0,-1.769065738E0,-1.007927656E0
3.503616458E1,4.192978859E0,-1.710422635E-1,-1.689653277E0
3.506399791E1,4.433660030E0,8.637634516E-1,1.022588372E0
3.508404479E1,4.708549023E0,7.770205736E-1,4.813618064E-1
3.510576458E1,3.257133484E0,-3.323106766E-1,-6.829473376E-1
3.513543385E1,1.800830722E0,-9.712757468E-1,-1.268156171E0
3.515555572E1,1.114218235E0,-1.883908391E0,-1.003040671E0
3.518391926E1,4.752531648E-1,-1.385442376E0,-1.783726513E-1
3.520554739E1,-1.050688177E-1,1.032362223E0,1.065348983E0
3.522574114E1,-1.426981211E0,6.731734872E-1,1.837482572E0
3.525388385E1,-2.125811100E0,5.045746565E-1,1.759291887E0
3.527556406E1,-2.064724445E0,2.376265764E0,9.920451641E-1
3.529558229E1,-2.513099670E0,2.476447582E0,-4.471533597E-1
3.531576822E1,-2.498438835E0,1.923003793E0,-9.993755221E-1
3.533589999E1,-2.932153225E0,1.813048005E0,-7.696902156E-1
3.536401406E1,-4.797735691E0,3.213151097E-1,9.272934198E-1
3.538556770E1,-3.616322279E0,-1.099557400E0,-8.833111525E-1
3.541397708E1,-3.720169306E0,-1.084896684E0,-1.010371089E0
3.544704374E1,-2.746450186E0,1.766622305E0,1.698205322E-1
3.547385208E1,-1.549154282E0,1.976759911E0,6.963863969E-1
3.549456145E1,-6.377432942E-1,1.610240817E0,8.930850029E-1
3.551583593E1,-6.108652335E-3,1.117883325E0,5.497786999E-1
3.553612135E1,6.633996367E-1,8.332201838E-1,-4.886921961E-3
3.556385572E1,9.150761366E-1,3.530800939E-1,-2.174680233E-1
3.558407343E1,1.324355841E0,2.797762752E-1,6.719517708E-2
3.560557239E1,3.927863359E0,-3.494149148E-1,7.122688890E-1
3.562558020E1,3.908315897E0,-2.441017389E0,1.051909924E0
3.565397760E1,-3.517362118E0,1.832595654E-2,6.352998316E-2
3.567399843E1,-3.622430801E0,6.963863969E-1,-8.979718685E-1
3.569402864E1,-6.096435070E0,2.506990910E0,-1.447750568E0
3.571575624E1,-1.954768777E0,-9.883799553E-1,-9.309586287E-1
3.573621145E1,3.422067165E0,-1.143539667E0,1.919338584E0
3.576385624E1,3.968180656E0,-2.095267773E0,3.127630055E-1
3.578392499E1,4.563163280E0,-3.560122490E0,6.108652335E-3
3.580556302E1,4.423885822E0,2.260201454E0,-5.012760162E0
3.582575468E1,3.352428436E0,-8.368853927E-1,9.419541955E-1
3.585379010E1,5.617516518E0,-3.347541392E-1,1.809382796E0
3.587394374E1,4.153883457E0,2.260201424E-1,-6.120869517E-1
3.589410260E1,2.775771618E0,-1.832595654E-2,-1.183856845E0
3.591578020E1,2.734232903E0,-9.651670456E-1,-7.953465581E-1
3.594815156E1,1.466076612E0,-7.831292152E-1,-6.401867867E-1
3.596904114E1,1.011592865E0,-1.036027431E0,-3.579670191E-1
3.599401510E1,1.059240341E0,-3.029891551E-1,6.853907704E-1
3.601573906E1,-6.890559793E-1,1.280373573E0,2.035403013E0
3.603615260E1,-2.150245667E0,4.630358517E-1,2.047620296E0
3.606396458E1,-2.415361166E0,1.185078502E0,1.466076612E0
3.608409583E1,-2.492330074E0,3.984063148E0,9.932668805E-1
3.610554687E1,-2.728124142E0,3.040887117E0,-6.377432942E-1
3.613542187E1,-2.471560717E0,9.529497623E-1,-2.475225925E0
3.615553802E1,-5.341405392E0,4.813618064E-1,-3.824016452E-1
3.617557916E1,-5.436700821E0,-1.657888293E0,-5.986479297E-2
3.620389687E1,-4.228409290E0,-2.254092693E0,-6.866125464E-1
3.622556874E1,-3.492927313E0,-8.833111525E-1,-4.642575681E-1
3.624582499E1,-2.664594173E0,1.657888293E0,4.031710699E-2
3.627556979E1,-1.362229466E0,2.340835571E0,7.367034554E-1
3.629574270E1,-3.714060783E-1,1.672549009E0,7.428121567E-1
3.631579531E1,6.255260110E-1,1.207069755E0,3.396410644E-1
3.633591510E1,1.376890182E0,6.976081133E-1,-1.404990107E-1
3.636385364E1,1.292590857E0,-6.401867867E-1,-2.907718420E-1
3.638404635E1,2.366492033E0,-1.169196010E0,1.392772794E-1
3.640557083E1,3.921754837E0,-1.874134541E0,2.223549485E-1
3.642576614E1,3.006678581E0,-1.897347450E0,6.682865620E-1
3.644730312E1,-1.806939363E0,-1.066570759E0,8.124507666E-1
3.647381093E1,-4.229630947E0,2.665815830E0,-9.541714787E-1
3.649480208E1,-6.591236115E0,-9.492845535E-1,-1.431868076E0
3.651579114E1,-9.529497623E-1,-2.787988901E0,5.778785348E-1
3.653631249E1,5.747020245E0,-8.063421398E-2,1.842369556E0
3.656401510E1,4.073249340E0,-3.055547953E0,-5.338962078E-1
3.658406874E1,4.702440739E0,-3.638313293E0,-2.058615923E0
3.660437604E1,3.672521830E0,2.431243658E0,-3.474601507E0
3.662555833E1,3.358536959E0,-1.330464482E0,1.627344966E0
3.665431666E1,5.933944702E0,-1.040914416E0,1.298699498E0
3.667555208E1,3.846007586E0,-1.331686229E-1,-1.266934514E0
3.670441249E1,2.638937712E0,-5.766567588E-1,-1.134987593E0
3.672554687E1,1.738522410E0,-1.078788042E0,-1.521054387E0
3.674575572E1,1.191187263E0,-1.191187263E0,-9.700539708E-1
3.676576926E1,6.866125464E-1,-1.225395679E0,-3.982841372E-1
3.678591093E1,-5.131268129E-2,6.243042946E-1,7.110471129E-1
3.681382135E1,-2.050063848E0,1.918116808E0,1.927890658E0
3.683487656E1,-2.557081938E0,1.441641927E0,2.111150265E0
3.685556145E1,-1.938886285E0,2.430022001E0,1.459967971E0
3.688404010E1,-2.480112791E0,3.500257730E0,-2.309070528E-1
3.690576041E1,-2.669481039E0,3.053104401E0,-9.224064946E-1
3.694788802E1,-5.110498428E0,-6.682865620E-1,-8.539896011E-1
3.697388697E1,-4.398229599E0,-1.112996459E0,-7.733553648E-1
3.699408072E1,-4.136779308E0,-9.700539708E-1,-6.499606371E-1
3.701575937E1,-3.188716650E0,2.883283794E-1,-2.822197378E-1
3.703611510E1,-2.269975185E0,1.043357849E0,1.123992056E-1
3.706388802E1,-1.092227101E0,1.098335743E0,4.141666293E-1
3.708554322E1,-2.040289938E-1,6.829473376E-1,2.675589621E-1
3.710556770E1,3.701843321E-1,8.381071091E-1,-1.295034289E-1
3.713540520E1,3.591887653E-1,7.049384713E-1,-4.654793143E-1
3.715555781E1,3.567453027E-1,-7.257078886E-1,-4.618141055E-1
3.718385156E1,3.825237989E0,-8.307766914E-1,3.726277947E-1
3.720554947E1,3.949854612E0,-1.725083470E0,7.867944241E-1
3.722565052E1,-1.601688623E0,-3.207042456E0,8.808676600E-1
3.725382395E1,-2.186897516E0,9.871582389E-1,-7.867944241E-1
3.727383958E1,-5.595525742E0,2.783102036E0,-8.393288255E-1
3.729414322E1,-5.655390263E0,-9.248499870E-1,-1.750739813E0
3.731574791E1,1.458746195E0,-2.001194477E0,7.684684396E-1
3.733623645E1,4.877148151E0,-2.687807083E-1,1.313360214E0
3.736383958E1,4.580267429E0,-3.897320271E0,6.902776957E-1
3.738394947E1,5.673716545E0,-1.747074604E0,-3.727499723E0
3.740406197E1,2.981022358E0,3.343876362E0,-2.009746552E0
3.742554739E1,4.243070126E0,-9.700539708E-1,2.180788994E0
3.744783802E1,5.847201824E0,-8.014551997E-1,1.731192112E0
3.747395989E1,3.491705656E0,7.501425147E-1,-1.205847979E0
3.749447499E1,2.963918209E0,-5.253440738E-1,-4.141666293E-1
3.751574947E1,2.211332083E0,-1.386664033E0,-8.747590184E-1
3.753617031E1,1.243721604E0,-1.335351348E0,-7.403686643E-1
3.756385052E1,6.499606371E-1,-1.803274155E0,-2.089159042E-1
3.758390052E1,-9.407324344E-2,2.687807083E-1,9.541714787E-1
3.760397187E1,-1.600466967E0,1.699427128E0,1.739744186E0
3.762575156E1,-2.383596182E0,4.239404798E-1,1.688431501E0
3.765381458E1,-1.999972820E0,2.484999895E0,1.040914416E0
3.767386302E1,-2.495995283E0,3.477044821E0,8.552113548E-3
3.769399895E1,-2.704911232E0,9.737191796E-1,-9.053022861E-1
3.771577604E1,-2.445904493E0,1.177748203E0,-1.770287395E0
3.773620260E1,-4.318817139E0,9.480628371E-1,-8.918632567E-2
3.776393281E1,-4.481307507E0,-5.143485069E-1,7.770205736E-1
3.778556666E1,-3.505144835E0,-2.993239760E-1,-2.321287841E-1
3.780557083E1,-3.397632360E0,8.979718685E-1,-5.277875662E-1
3.782577395E1,-3.082426071E0,2.114815474E0,-4.740314186E-1
3.785379322E1,-1.894904017E0,1.913229942E0,3.543018401E-1
3.787383281E1,-7.880161405E-1,1.516167521E0,6.035348773E-1
3.789430989E1,3.738495111E-1,9.847147465E-1,4.031710625E-1
3.791576354E1,1.202182770E0,7.452555895E-1,-1.710422635E-1
3.794788906E1,1.048244715E0,-2.431243658E-1,-1.905899495E-1
3.797407812E1,1.941329718E0,-1.143539667E0,3.824016452E-1
3.799559739E1,3.543018341E0,-1.804495931E0,6.157521605E-1
3.801573854E1,2.185675859E0,-2.149024010E0,6.279694438E-1
3.803625312E1,-2.018298626E0,4.508185387E-1,-1.001819000E-1
3.806389114E1,-4.283387184E0,2.792875767E0,-1.351233959E0
3.808407968E1,-4.908913136E0,-3.066543579E0,-1.925447226E0
3.810572864E1,2.076941729E-1,-1.755626678E0,1.392772794E-1
3.813535104E1,3.769038439E0,-1.062905490E-1,6.817256212E-1
3.815551926E1,4.151440144E0,-3.199712038E0,1.747074574E-1
3.817566041E1,5.970596790E0,-4.159992218E0,-2.097711325E0
3.820390520E1,2.072054863E0,2.770884752E0,-6.291912198E-1
3.822573802E1,4.382347107E0,-4.227187335E-1,2.097711325E0
3.825404583E1,5.379279137E0,-4.557054639E-1,3.897320330E-1
3.827565624E1,3.411071539E0,-6.218608022E-1,-1.025031924E0
3.830409947E1,2.443460941E0,-1.717753053E0,-1.176526427E0
3.832551614E1,9.114109278E-1,-1.218065262E0,-9.395107627E-1
3.834582812E1,7.428121567E-1,-9.871582389E-1,-6.743952036E-1
3.837385781E1,2.199114859E-2,5.937610269E-1,4.825835228E-1
3.839445728E1,-1.503950238E0,5.729916096E-1,1.580919266E0
3.841571874E1,-2.726902485E0,1.104444385E0,2.287079334E0
3.844755833E1,-2.003638029E0,2.827084303E0,1.734857321E0
3.847383333E1,-2.667037725E0,3.605326653E0,-4.874704480E-1
3.849399895E1,-2.505769253E0,2.382374525E0,-1.117883325E0
3.851576458E1,-3.470936298E0,1.170417786E0,-1.613905907E0
3.853612291E1,-5.590638638E0,-4.605923891E-1,1.123992056E-1
3.856385885E1,-3.883881092E0,-1.936442852E0,-7.672467232E-1
3.858400729E1,-3.480710030E0,-1.166752577E0,-7.977899909E-1
3.860412447E1,-3.031113386E0,9.908233881E-1,-4.117231667E-1
3.862556197E1,-2.026850939E0,1.850921631E0,2.174680233E-1
3.864564010E1,-1.105666041E0,1.781283021E0,6.291912198E-1
3.866574687E1,-3.323106766E-1,1.397659659E0,6.890559793E-1
3.869405520E1,5.021312237E-1,8.454374671E-1,1.111774743E-1
3.871577083E1,1.000597239E0,6.108652428E-2,-2.993239760E-1
3.873623645E1,1.204626203E0,-6.817256212E-1,-3.457497358E-1
3.876391301E1,4.106235981E0,-8.381071091E-1,1.600466967E-1
3.878555416E1,3.617543936E0,-2.064724445E0,4.728097022E-1
3.880615885E1,-2.213775635E0,-2.267531872E0,7.684684396E-1
3.883551406E1,-2.145358801E0,5.436700583E-1,-5.387831330E-1
3.885556562E1,-4.222300529E0,2.847853661E0,-7.281513810E-1
3.888381822E1,-2.095267773E0,-4.961447239E0,-2.455678284E-1
3.890407135E1,2.646268129E0,2.138028294E-1,-1.859473825E0
3.892554843E1,1.857030272E0,-1.685988009E-1,-1.808161139E-1
3.894820572E1,2.637716055E0,-2.361604929E0,-1.099557430E-1
3.897379062E1,5.523443699E0,-2.404365540E0,-3.738495111E-1
3.899411614E1,3.296228886E0,5.668829679E-1,-2.499660492E0
3.901413906E1,3.568674803E0,2.809980139E-2,4.141666293E-1
3.903544895E1,5.345070839E0,5.461135507E-1,1.484402537E0
3.905554687E1,4.390899181E0,-1.600466967E-1,2.321287990E-2
3.907560676E1,2.993239641E0,-5.791002512E-1,-9.114109278E-1
3.910380416E1,2.280970812E0,-1.386664033E0,-1.429424644E0
3.912389531E1,1.160643935E0,-1.949881792E0,-8.393288255E-1
3.914405833E1,4.789183438E-1,-1.792278647E0,-2.907718420E-1
3.916577968E1,-2.419026345E-1,1.260825872E0,1.016479731E0
3.919401249E1,-1.783726454E0,1.930334091E0,2.345722437E0
3.921579478E1,-2.243097067E0,5.815436840E-1,2.423913240E0
3.923589999E1,-2.214997292E0,3.274237633E0,1.488067746E0
3.926380729E1,-2.708576441E0,3.711617231E0,-7.195992470E-1
3.928555312E1,-2.419026375E0,-2.944370508E-1,-1.843591332E0
3.930577395E1,-2.328618288E0,1.221730490E-3,-2.525316954E0
3.933494739E1,-5.837428093E0,2.370157093E-1,1.281595230E0
3.935555624E1,-3.646865368E0,-1.003040671E0,2.846632004E-1
3.937567968E1,-3.297450542E0,-6.743952036E-1,-2.968805134E-1
3.940400729E1,-3.022561073E0,2.139250040E0,-4.728097022E-1
3.942402187E1,-2.284636021E0,2.847853661E0,4.886921961E-3
3.944755781E1,-1.091005325E0,2.140471697E0,5.424483418E-1
3.947387135E1,2.504547536E-1,8.637634516E-1,5.656611919E-1
3.949408333E1,9.089674950E-1,2.480112910E-1,1.918116808E-1
3.951577864E1,1.193630695E0,-7.501425147E-1,-2.003637999E-1
3.953611979E1,1.255938888E0,-1.067792416E0,-1.759291887E-1
3.956407239E1,2.928488016E0,-1.192408919E0,1.759291887E-1
3.958557864E1,2.702467918E0,-1.441641927E0,7.867944241E-1
3.961379531E1,-2.012190104E0,2.125810981E-1,3.860668242E-1
3.963543645E1,-2.943148613E0,2.269975185E0,-7.330383062E-1
3.965554999E1,-3.489262342E0,-1.243721604E0,-8.637634516E-1
3.968385260E1,3.115412593E-1,-5.937610269E-1,-7.330382708E-3
3.970392291E1,2.455678225E0,2.932153046E-1,5.180137157E-1
3.972402187E1,2.320066214E0,-1.648114443E0,2.321287990E-2
3.974453593E1,3.442836523E0,-2.317622662E0,2.687807083E-1
3.976574635E1,5.105611801E0,-2.433687210E0,-2.171015024E0
3.978579374E1,3.056769609E0,2.724458873E-1,-1.576032281E0
3.981380624E1,4.542393684E0,-1.380555481E-1,1.594358325E0
3.983491354E1,5.401270390E0,9.773843735E-2,7.513642311E-1
3.985559583E1,3.095865011E0,-2.541199327E-1,-1.065348983E0
3.988382864E1,2.128254414E0,-2.883283794E-1,-1.106887817E0
3.990575260E1,1.134987593E0,-5.949827433E-1,-1.020144939E0
3.994789635E1,-5.204572082E-1,-8.136724830E-1,1.478293836E-1
3.997379426E1,-9.700539708E-1,1.462411404E0,1.601688623E0
3.999449791E1,-2.368935347E0,1.809382796E0,2.070833206E0
4.001574010E1,-2.399478674E0,1.654223084E0,1.372003317E0
4.003590208E1,-2.649933338E0,2.288301229E0,4.642575979E-2
4.006398749E1,-2.851518869E0,9.187412858E-1,-1.535715222E0
4.008400208E1,-2.520429850E0,-7.635815740E-1,-1.953547001E0
4.010554895E1,-2.794097662E0,-1.546710730E0,-1.670105577E0
4.012560833E1,-5.808106899E0,3.689626157E-1,6.756169796E-1
4.014578645E1,-4.561941624E0,-4.948008358E-1,8.332201838E-1
4.016583958E1,-2.873510122E0,2.565634064E-2,5.204572082E-1
4.019403176E1,-2.487443209E0,1.674992442E0,-1.295034289E-1
4.021573958E1,-1.899790883E0,1.804495931E0,3.249803185E-1
4.023615676E1,-1.062905550E0,1.583362699E0,7.855727077E-1
4.026390520E1,7.696902007E-2,1.193630695E0,8.161159754E-1
4.028393697E1,9.040805697E-1,1.060461998E0,3.665191531E-1
4.030555416E1,1.501506805E0,2.626720369E-1,1.282816976E-1
4.032565208E1,1.865582466E0,-7.599163651E-1,3.396410644E-1
4.034607760E1,2.678033113E0,-1.196074128E0,2.797762752E-1
4.037384999E1,1.783726454E0,-1.696983576E0,4.239404798E-1
4.039400989E1,-1.899790883E0,-3.677408695E-1,2.516764700E-1
4.041577135E1,-3.031113386E0,1.583362699E0,-6.291912198E-1
4.044730624E1,-3.095865011E0,-6.316346526E-1,-2.162462920E-1
4.046785937E1,2.590068579E-1,-2.387261391E0,1.893682182E-1
4.049405364E1,2.537534237E0,-3.640756905E-1,-1.502728462E-1
4.051576666E1,1.732413769E0,-1.727526903E0,-4.557054639E-1
4.053620885E1,2.574186087E0,-7.770205736E-1,-7.599163651E-1
4.056400885E1,4.513072491E0,-1.683544636E0,-3.665191531E-1
4.058554791E1,3.569896460E0,-9.773843922E-3,-1.145983219E0
4.061390260E1,4.692666531E0,-3.787364438E-2,1.038470864E0
4.063540989E1,4.448320866E0,3.054326177E-1,-1.087340117E-1
4.065556510E1,3.666413069E0,-9.773843735E-2,-7.452555895E-1
4.067556978E1,2.789210558E0,-5.766567588E-1,-8.869763017E-1
4.070386926E1,1.595579982E0,-1.519832730E0,-7.452555895E-1
4.072405676E1,1.010371089E0,-1.916895151E0,-3.481931984E-1
4.074432187E1,8.723155856E-1,-1.452637553E0,3.555235565E-1
4.076576301E1,-6.963863969E-2,5.803219676E-1,9.114109278E-1
4.079403072E1,-1.817934990E0,7.831292152E-1,1.831373930E0
4.081581666E1,-2.142915249E0,1.375668526E0,1.712866068E0
4.083624687E1,-2.255314350E0,3.381749868E0,6.585127115E-1
4.086382135E1,-2.466673851E0,1.722639918E0,-1.468520045E0
4.088382499E1,-2.274862051E0,-4.068362415E-1,-1.673770785E0
4.090402395E1,-2.651155233E0,1.808161139E-1,-1.505171895E0
4.092405989E1,-5.368283749E0,-1.307251602E-1,8.466592431E-1
4.094776770E1,-3.995058537E0,-1.705535769E0,1.649336070E-1
4.097440260E1,-3.045773983E0,-1.091005325E0,-1.221730486E-1
4.099556926E1,-2.700024366E0,6.401867867E-1,-1.918116808E-1
4.101577760E1,-2.103819847E0,1.648114443E0,2.345722467E-1
4.103617812E1,-1.262047529E0,1.926669002E0,5.754350424E-1
4.106405260E1,-3.200933933E-1,1.402546525E0,6.511823535E-1
4.108554635E1,5.448917747E-1,9.847147465E-1,1.698205322E-1
4.110577291E1,1.302364707E0,2.296853215E-1,-2.040289938E-1
4.113542708E1,1.699427128E0,-1.275486588E0,2.590068579E-1
4.115563697E1,2.614503145E0,-1.598023415E0,3.139847219E-1
4.118405208E1,2.219884157E0,-2.290744543E0,5.143485069E-1
4.120554739E1,-2.128254414E0,5.619960278E-2,3.848451078E-1
4.122574166E1,-2.300518513E0,1.392772794E0,-2.370157093E-1
4.125396822E1,-4.041484356E0,2.598620653E0,-7.428121567E-1
4.127401978E1,-2.503325701E0,-2.069611311E0,-6.682865620E-1
4.129405728E1,1.969429493E0,-9.602801800E-1,1.461189628E0
4.131577395E1,2.482556343E0,4.251621962E-1,9.334020615E-1
4.133632135E1,2.057394028E0,-2.124589205E0,3.591887653E-1
4.136412343E1,5.169141769E0,-2.287079334E0,-3.563787699E0
4.138556041E1,2.967583418E0,-4.508185387E-1,-1.216843605E0
4.141405624E1,4.287052155E0,-7.318165302E-1,1.367116451E0
4.144693124E1,3.858224869E0,-1.600466967E-1,-5.021312237E-1
4.147379635E1,3.088534594E0,-6.401867867E-1,-6.682865620E-1
4.149400885E1,2.497217178E0,-1.208291411E0,-1.166752577E0
4.151576822E1,9.505063295E-1,-2.216219187E0,-1.102000833E0
4.153618958E1,6.352998614E-1,-2.930931330E0,-6.927211881E-1
4.156391666E1,2.687807009E-2,6.792821288E-1,7.819075137E-2
4.158577395E1,-1.760513663E0,2.444682598E0,1.560149789E0
4.161380989E1,-2.397035122E0,1.507615447E0,2.092824221E0
4.163549426E1,-2.092824221E0,1.827708840E0,1.235169530E0
4.165554895E1,-2.610837936E0,2.789210558E0,-2.577851415E-1
4.167556406E1,-2.685363531E0,1.892460465E0,-9.175195694E-1
4.169557239E1,-2.808758259E0,1.446528912E0,-1.451415777E0
4.171575572E1,-4.295604229E0,1.710422710E-2,2.797762752E-1
4.173627499E1,-4.693888664E0,-3.469714522E-1,8.930850029E-1
4.176380729E1,-3.338989496E0,-5.009095073E-1,7.330382708E-3
4.178405833E1,-2.894279480E0,1.258382350E-1,-3.249803185E-1
4.180555937E1,-2.351831198E0,2.250427485E0,-2.467895597E-1
4.182575833E1,-1.492954612E0,2.657263756E0,1.343903504E-2
4.185380312E1,-2.406809032E-1,1.497841597E0,4.007275999E-1
4.187402239E1,5.180137157E-1,5.363397002E-1,3.665191531E-1
4.189556978E1,1.154535294E0,3.872885704E-1,-1.857030392E-1
4.191599999E1,1.448972344E0,1.099557430E-2,-3.995058537E-1
4.195797499E1,1.721418262E0,-1.626123309E0,-4.434881508E-1
4.198382031E1,2.422691584E0,-2.123367548E0,3.298672289E-2
4.200409426E1,8.625417352E-1,-9.908233881E-1,6.035348773E-1
4.202555416E1,-3.489262342E0,1.749518037E0,1.050688177E-1
4.204562604E1,-5.171585083E0,1.825265288E0,-6.572909951E-1
4.206584739E1,-2.439795732E0,-3.962071896E0,-9.590584040E-1
4.209438124E1,1.677435994E0,-2.296853215E-1,-6.010913849E-1
4.211575728E1,3.166725397E0,-1.373225093E0,-1.356120855E-1
4.213588854E1,2.885727406E0,-3.026226282E0,-5.632177591E-1
4.216395624E1,3.800803423E0,-1.624901593E-1,-1.821600080E0
4.218404843E1,3.009122133E0,7.562511563E-1,-1.037249207E0
4.220556562E1,3.940080881E0,-5.534439087E-1,8.356636167E-1
4.223549947E1,4.840496063E0,-5.668829679E-1,5.082398653E-1
4.225555885E1,3.496592522E0,1.172861233E-1,-3.762929738E-1
4.227556041E1,2.729345798E0,1.637118906E-1,-7.709119320E-1
4.229556718E1,2.097711325E0,-5.106833577E-1,-1.149648428E0
4.231576406E1,1.073901057E0,-8.955284357E-1,-8.686503768E-1
4.233588124E1,4.972442985E-1,-1.138652802E0,-7.208209485E-2
4.236382551E1,-4.422664344E-1,1.053131700E0,1.078788042E0
4.238554218E1,-1.361007690E0,2.742784977E0,2.361604929E0
4.240557135E1,-1.970651269E0,2.247984171E0,2.147802114E0
4.242578906E1,-1.963320851E0,1.957212210E0,1.281595230E0
4.244718385E1,-2.506990910E0,2.613281488E0,4.153883457E-2
4.247387968E1,-2.593733788E0,2.806314945E0,-1.525941372E0
4.249400885E1,-3.402519464E0,1.114218235E0,-1.986533761E0
4.251406041E1,-4.745201111E0,-3.738495111E-1,-2.419026345E-1
4.253491041E1,-3.771481991E0,-1.527163148E0,-4.972442985E-1
4.255554739E1,-3.418401957E0,-1.550375938E0,-8.100072742E-1
4.257560572E1,-3.038443565E0,-3.176499307E-1,-5.424483418E-1
4.259563228E1,-2.441017389E0,1.578475714E0,-1.392772794E-1
4.261574531E1,-1.569923639E0,2.105041504E0,5.021312237E-1
4.263621354E1,-8.417723179E-1,1.946216583E0,7.024950385E-1
4.266380676E1,1.270599663E-1,1.147204876E0,6.780604124E-1
4.268446926E1,7.049384713E-1,8.075638413E-1,1.087340117E-1
4.270555676E1,1.036027431E0,2.357939780E-1,-1.881464869E-1
4.272556926E1,1.070235848E0,-1.417207420E-1,-1.026253626E-1
4.274578124E1,2.117259026E0,-6.658431292E-1,1.893682182E-1
4.277380676E1,2.989574432E0,-2.748893499E0,5.729916096E-1
4.279483854E1,-4.434881508E-1,-2.114815474E0,8.063421249E-1
4.281580729E1,-4.532619953E0,1.676214218E0,-5.461135507E-1
4.283624947E1,-4.108679771E0,4.667010307E-1,-9.639453292E-1
4.286402083E1,-9.932668805E-1,-7.244861722E-1,-1.172861233E-1
4.288556822E1,3.835011959E0,-7.391469479E-1,1.470963478E0
4.290576041E1,3.082426071E0,-1.089783549E0,-6.377432942E-1
4.294848541E1,4.713436127E0,-1.771509171E0,-3.461162329E0
4.297376770E1,2.889392614E0,-4.129449129E-1,3.848451078E-1
4.299400156E1,4.444655418E0,-1.202182770E0,2.045176744E0
4.301575624E1,4.938234806E0,-6.963863969E-2,6.450737119E-1
4.303619791E1,3.221703291E0,3.714060783E-1,-8.527678847E-1
4.306378489E1,2.660928965E0,-6.597344577E-2,-8.087855577E-1
4.308391458E1,1.732413769E0,-8.038986325E-1,-1.043357849E0
4.310556354E1,6.157521605E-1,-1.546710730E0,-3.457497358E-1
4.313535468E1,-3.787364438E-2,4.667010307E-1,1.263269305E0
4.315555208E1,-1.055575132E0,2.861292839E0,2.368935347E0
4.318386822E1,-2.665815830E0,2.129476309E0,1.997529268E0
4.320554739E1,-2.680476665E0,2.516764879E0,5.803219676E-1
4.323548801E1,-3.121521473E0,1.678657651E0,-8.759807348E-1
4.325553541E1,-3.111747503E0,2.039068222E0,-1.312138557E0
4.327556041E1,-4.444655418E0,-3.909537569E-2,-1.166752577E0
4.329566406E1,-5.314527512E0,-1.055575132E0,-4.703662395E-1
4.331574843E1,-4.117231846E0,-1.671327233E0,-9.053022861E-1
4.333627343E1,-3.561344385E0,-1.544267297E0,-9.395107627E-1
4.336388854E1,-2.801428080E0,1.518610954E0,-9.627236128E-1
4.338578229E1,-1.952325344E0,1.822821856E0,-1.429424584E-1
4.341379999E1,-8.478809595E-1,7.073819637E-1,5.143485069E-1
4.344765676E1,4.654793143E-1,1.356120855E-1,2.125810981E-1
4.346780468E1,1.252273679E0,-4.813618064E-1,-1.881464869E-1
4.349446718E1,1.789835095E0,-4.740314186E-1,-2.956587672E-1
4.351574322E1,1.709200978E0,5.986479297E-2,-4.153883457E-1
4.353648229E1,2.504547358E0,-9.260717034E-1,-7.452555746E-2
4.356400416E1,1.805717587E0,-2.811201811E0,7.696902007E-2
4.358556354E1,-2.075720072E0,-6.487388611E-1,-2.809980139E-2
4.361386093E1,-4.136779308E0,3.015230894E0,-1.832595654E-2
4.363543958E1,-3.065321684E0,3.017674387E-1,-3.420845419E-2
4.365554687E1,2.795319319E0,5.815436840E-1,-8.136724830E-1
4.368384218E1,2.179567099E0,-7.171558142E-1,3.567453027E-1
4.370398541E1,1.677435994E0,-2.241875410E0,-5.338962078E-1
4.372556249E1,3.937637329E0,9.419541955E-1,-1.425759435E0
4.374578645E1,4.524067879E0,2.487443209E0,-4.592484951E0
4.377440520E1,3.582113743E0,3.127630055E-1,1.820378453E-1
4.379557604E1,4.079358101E0,-2.626720369E-1,6.743952036E-1
4.381576249E1,3.762929916E0,-1.875356317E0,-6.108652428E-2
4.383591458E1,3.071430445E0,-2.497217178E0,-1.364672899E0
4.386383958E1,1.287703872E0,-1.252273679E0,-1.828930497E0
4.388555103E1,3.457497358E-1,-2.944370508E-1,-7.721336484E-1
4.391400208E1,4.043927789E-1,-8.674286306E-2,7.379252315E-1
4.394743228E1,-1.791056871E0,8.173376918E-1,2.127032757E0
4.397392760E1,-2.939483404E0,2.138028383E0,2.151467323E0
4.399407916E1,-2.693915606E0,2.382374525E0,1.018923163E0
4.401576770E1,-2.734232903E0,1.094670534E0,-5.888741016E-1
4.403615051E1,-2.999348402E0,8.038986325E-1,-9.627236128E-1
4.406412187E1,-3.854559660E0,1.966986060E-1,-4.813618064E-1
4.408556197E1,-3.991393566E0,-1.792278647E0,-1.086118340E0
4.410574791E1,-3.293785334E0,-1.773952603E0,-6.780604124E-1
4.413537395E1,-3.083647728E0,-1.221730467E-2,-2.199114859E-2
4.415554114E1,-2.739119768E0,5.998696685E-1,2.076941729E-2
4.417556301E1,-1.665218592E0,2.076941729E-1,2.797762752E-1
4.419565833E1,-7.269296050E-1,-2.809980139E-2,4.679227769E-1
4.421573958E1,1.233947799E-1,4.386012256E-1,8.307766914E-2
4.423621978E1,1.153313518E0,5.900958180E-1,-3.933972120E-1
4.426408749E1,1.965764284E0,5.656611919E-1,-4.508185387E-1
4.428556458E1,2.393369913E0,1.490511149E-1,5.253440887E-2
4.431379218E1,2.323731422E0,-1.696983576E0,8.784242272E-1
4.433545885E1,1.626123309E0,-2.335948706E0,1.167974353E0
4.435554322E1,-5.082398653E-1,-2.007303238E0,8.026769161E-1
4.437556197E1,-3.084869385E0,7.733553648E-1,-5.949827433E-1
4.439567656E1,-4.208861351E0,-2.932153083E-2,-2.809980214E-1
4.441574583E1,6.145304441E-1,-1.404990107E-1,5.167919993E-1
4.444749478E1,1.291369081E0,8.759807348E-1,-5.338962078E-1
4.447393697E1,1.954768777E0,-1.249830246E0,-3.078760803E-1
4.449405520E1,4.190535545E0,-4.972442985E-1,-1.722639948E-1
4.451576926E1,4.238183022E0,3.579670191E-1,-1.029918790E0
4.453641614E1,3.408627987E0,4.080579877E-1,-7.953465581E-1
4.456384270E1,4.268726349E0,3.347541392E-1,3.799581826E-1
4.458404635E1,4.108679771E0,-9.773843922E-3,6.841690838E-2
4.460554270E1,2.927266121E0,-1.930334121E-1,-1.282817006E0
4.462556978E1,1.987755537E0,-5.155702829E-1,-1.679879427E0
4.465378385E1,7.098253965E-1,-9.065240026E-1,-6.768386960E-1
4.467389687E1,1.099557430E-1,4.214970171E-1,3.555235565E-1
4.469399739E1,-7.941247821E-1,2.519208193E0,2.008524895E0
4.471576510E1,-2.193006277E0,2.357939720E0,2.305405378E0
4.473617656E1,-2.654820204E0,2.301740170E0,1.364672899E0
4.476395833E1,-2.776993275E0,1.243721604E0,-8.185594529E-2
4.478554947E1,-3.337767601E0,1.088561893E0,-1.186300278E0
4.480556093E1,-3.345098019E0,4.948008358E-1,-1.309695125E0
4.482577499E1,-4.250400543E0,6.976081133E-1,-8.527678847E-1
4.485399166E1,-3.966958761E0,-8.943067193E-1,-5.119050741E-1
4.487556353E1,-2.803871393E0,-1.304808140E0,-2.516764700E-1
4.489563176E1,-3.067765236E0,-8.063421249E-1,-8.759807348E-1
4.491579687E1,-3.178942680E0,-5.204572082E-1,-6.963863969E-1
4.494803593E1,-1.820378423E0,4.520402849E-2,3.518583775E-1
4.496865624E1,-6.377432942E-1,4.459316134E-1,5.302309990E-1
4.499401249E1,-5.131268129E-2,8.820893764E-1,1.588249654E-1
4.501575520E1,6.267477274E-1,8.906415105E-1,-5.290092826E-1
4.503624218E1,1.186300278E0,9.798278213E-1,-7.977899909E-1
4.506402291E1,1.919338584E0,1.065348983E0,-4.899139106E-1
4.508554531E1,2.550973177E0,-1.455080986E0,6.707300544E-1
4.510563072E1,2.572964430E0,-2.587625027E0,1.244943380E0
4.513538489E1,-6.866125464E-1,-1.089783549E0,8.087855577E-1
4.515556718E1,-3.621209145E0,1.352455616E0,-5.131268129E-2
4.518412864E1,-2.018298626E0,8.063421249E-1,-1.398881435E0
4.520555051E1,2.594955444E0,-3.946189284E-1,-3.054326177E-1
4.523543333E1,2.097711325E0,-1.727526903E0,-3.164281845E-1
4.525553958E1,3.081204176E0,-1.345125198E0,-7.134906054E-1
4.527556145E1,4.100127697E0,5.619960427E-1,-1.029918790E0
4.529556926E1,4.161213875E0,2.932153083E-2,-6.328563690E-1
4.531574166E1,3.985284805E0,-1.022588372E0,4.434881508E-1
4.533618593E1,4.795291901E0,-1.115439892E0,7.428121567E-1
4.536383853E1,4.045149803E0,-9.114109278E-1,7.330382708E-3
4.538446510E1,3.005456924E0,-8.319984674E-1,-1.196074128E0
4.540554843E1,1.644449234E0,-3.848451078E-1,-1.912008166E0
4.542574739E1,6.035348773E-1,-8.295549750E-1,-1.299921274E0
4.544735260E1,1.072679400E0,-8.075638413E-1,-2.590068579E-1
4.547381406E1,3.029891551E-1,9.138544202E-1,1.439198494E0
4.549402343E1,-1.525941372E0,1.435533285E0,2.549751520E0
4.551577603E1,-2.590068579E0,1.401324868E0,2.482556343E0
4.553587083E1,-2.302961826E0,1.682322860E0,1.442863703E0
4.556386718E1,-2.875953436E0,1.762957096E0,-2.895501256E-1
4.558388280E1,-2.841745138E0,4.679227769E-1,-9.908233881E-1
4.560403437E1,-3.370754480E0,7.049384713E-1,-1.054353356E0
4.562408020E1,-4.130670547E0,-7.098253965E-1,-7.037167549E-1
4.564443072E1,-4.042706013E0,-1.496619821E0,-8.625417352E-1
4.566578176E1,-3.696956396E0,-1.567480206E0,-5.326744914E-1
4.569400781E1,-3.536909819E0,-6.633996367E-1,-3.371976018E-1
4.571575624E1,-2.880840540E0,8.723155856E-1,4.373795092E-1
4.573625364E1,-1.800830722E0,4.654793143E-1,9.443976283E-1
4.576447343E1,-9.126326442E-1,4.019493163E-1,8.710938096E-1
4.578577812E1,1.893682182E-1,1.222952247E0,3.139847219E-1
4.581378801E1,1.253495455E0,2.472782373E0,-1.942551434E-1
4.583492760E1,1.287703872E0,2.241875410E0,-2.736676335E-1
4.585555624E1,2.690250397E0,9.566149712E-1,3.335324228E-1
4.588381718E1,3.304780960E0,-1.078788042E0,5.375614166E-1
4.590412551E1,2.025629044E0,-1.481959105E0,9.786061049E-1
4.592556458E1,-1.859473825E0,-2.700024247E-1,5.937610269E-1
4.594813333E1,-4.092797279E0,2.135584831E0,-8.539896011E-1
4.597378176E1,-3.716504097E0,-8.991936445E-1,-7.672467232E-1
4.599397968E1,1.282817006E0,-1.315803766E0,-4.886921868E-2
4.601574374E1,3.810577393E0,9.651670605E-2,1.587027907E0
4.603624114E1,3.484375238E0,-2.046398640E0,2.003637999E-1
4.606383228E1,4.466646671E0,-2.968805134E-1,-2.142915249E0
4.608481978E1,3.488040447E0,2.597398996E0,-7.281513810E-1
4.610556510E1,3.360980511E0,-1.307251602E-1,1.736078978E0
4.613537864E1,5.431813717E0,3.078760803E-1,7.147123218E-1
4.615554478E1,3.784920931E0,-3.494149148E-1,-3.726277947E-1
4.617556197E1,2.603507519E0,-1.160643935E0,-8.124507666E-1
4.620379843E1,1.943773150E0,-1.273043156E0,-1.062905550E0
4.622399270E1,9.957103133E-1,-1.331686258E0,-5.473352671E-1
4.624449739E1,7.159340382E-1,-1.386664033E0,1.551597714E-1
4.626578958E1,-3.029891551E-1,6.328563690E-1,1.324355841E0
4.629447135E1,-2.919935942E0,1.926669002E0,2.956587791E0
4.631576406E1,-2.653598547E0,1.298699498E0,2.080606937E0
4.633588072E1,-2.432465315E0,1.095892191E0,6.010913849E-1
4.636397187E1,-2.638937712E0,7.342600226E-1,-1.117883325E0
4.638402343E1,-1.772730947E0,1.116661668E0,-1.799608946E0
4.640556770E1,-4.811174393E0,4.153883457E-1,6.450737119E-1
4.644719843E1,-3.560122490E0,-1.514945745E0,-3.298672289E-2
4.647395416E1,-3.078760862E0,-3.066543341E-1,-6.194173694E-1
4.649449166E1,-2.896723032E0,1.523497939E0,-3.677408695E-1
4.651577291E1,-2.194227934E0,2.398257017E0,1.624901593E-1
4.653622030E1,-1.390329242E0,1.859473825E0,4.630358517E-1
4.656386353E1,-1.710422710E-2,1.193630695E0,2.003637999E-1
4.658554999E1,9.737191796E-1,7.684684396E-1,-2.284636050E-1
4.661377499E1,1.566258430E0,-3.042109013E-1,-4.557054639E-1
4.663532447E1,2.106263399E0,-1.097113967E0,5.253440887E-2
4.665555937E1,2.830749512E0,-1.859473825E0,9.578366876E-1
4.668404062E1,1.852143407E0,-1.450194120E0,1.477072120E0
4.670555676E1,-1.682322860E0,5.619960278E-2,1.930334121E-1
4.672567135E1,-3.404962778E0,1.940107942E0,-1.012814522E0
4.674586093E1,-5.832541466E0,8.600982428E-1,-1.651779652E0
4.677484478E1,6.841690838E-2,-2.687807009E-2,-1.588249579E-2
4.679557291E1,3.676187038E0,1.185078546E-1,1.551597714E0
4.681581353E1,2.817310572E0,-1.838704348E0,2.089159042E-1
4.683587395E1,3.959628344E0,-2.885727406E0,-2.883283794E-1
4.686401926E1,5.477017879E0,-3.946189284E-1,-2.147802114E0
4.688407916E1,3.111747503E0,5.253440887E-2,4.031710625E-1
4.690555728E1,4.714657784E0,5.009095073E-1,2.024407387E0
4.692566562E1,5.325522900E0,6.927211881E-1,1.216843605E0
4.694837968E1,3.852116108E0,-3.970623910E-1,-1.441641897E-1
4.697446874E1,2.553416729E0,-9.419541955E-1,-3.885102868E-1
4.699567447E1,1.615127683E0,-1.552819371E0,-1.054353356E0
4.701578020E1,5.607742667E-1,-2.047620296E0,-7.122688890E-1
4.703627239E1,5.607742667E-1,-1.725083470E0,-2.003637999E-1
4.706407603E1,1.466076523E-1,1.292590857E0,1.855808616E0
4.708553853E1,-2.128254414E0,1.401324868E0,2.375044107E0
4.710576822E1,-2.515542984E0,1.149648428E0,1.897347450E0
4.713549426E1,-2.603507519E0,1.492954612E0,5.253440887E-2
4.715555937E1,-2.803871393E0,1.392772794E0,-1.081231475E0
4.718404374E1,-4.172209740E0,1.094670534E0,-6.108652353E-1
4.720437447E1,-4.596149921E0,-3.909537569E-2,-2.761110961E-1
4.722574531E1,-3.436727762E0,-1.303586364E0,-1.158200502E0
4.725380312E1,-3.676187038E0,-7.721336484E-1,-1.258382440E0
4.727398385E1,-3.685960770E0,4.141666293E-1,-9.456194043E-1
4.729445520E1,-2.735454559E0,1.524719596E0,-3.396410644E-1
4.731576510E1,-1.277930021E0,1.362229466E0,3.054326214E-2
4.733625520E1,-6.841690540E-1,1.199739337E0,9.896016866E-2
4.736450364E1,7.819075137E-2,8.405505419E-1,-1.331686229E-1
4.738555885E1,8.649851680E-1,4.728097022E-1,-2.431243658E-1
