"Time (s)","Linear Acceleration x (m/s^2)","Linear Acceleration y (m/s^2)","Linear Acceleration z (m/s^2)"
2.699427000E-2,-2.072599888E0,2.873499870E0,-7.705999613E-1
5.679895800E-2,-1.126649952E1,4.128399849E0,8.677999973E-1
7.727239500E-2,-2.485199928E0,1.168499947E0,-7.289999723E-1
1.068473950E-1,-5.066199780E0,-1.172199965E0,-1.353399992E0
1.269000000E-1,-2.268599987E0,-5.644599915E0,1.963699937E0
1.475947910E-1,-3.136499882E0,-2.875000000E0,4.588999748E-1
1.677833330E-1,-4.166199684E0,4.416999817E-1,-1.386699915E0
1.879557290E-1,-1.299299955E0,2.399600029E0,-1.114899993E0
2.179776040E-1,-2.653599977E0,4.503299713E0,-3.121899843E0
2.473572910E-1,-1.013599992E0,-1.493699908E0,1.300799966E0
2.676088540E-1,-1.139159966E1,-1.018219948E1,-2.936100006E0
2.973432290E-1,1.231199980E0,9.808699608E0,1.441100001E0
3.175697910E-1,6.949999928E-1,4.355400085E0,-1.611899972E0
3.476182290E-1,4.279699802E0,2.107100010E0,-1.505499959E0
3.676906240E-1,2.779999971E-1,5.006999969E-1,-1.429000020E0
3.974723950E-1,-2.055099964E0,3.603000045E-1,-2.938999832E-1
4.175598950E-1,5.182999969E-1,3.321999907E-1,2.377999872E-1
4.480848950E-1,-2.705099821E0,3.088500023E0,-1.572099924E0
4.729473950E-1,2.153699875E0,-3.253099918E0,-2.612499952E0
4.930916660E-1,2.286099911E0,-3.708999872E0,-3.360999823E-1
5.228598950E-1,-8.049999923E-2,-4.193999767E-1,1.112900019E0
5.431161450E-1,-6.104999781E-1,2.196799994E0,6.074000001E-1
5.729020830E-1,-1.071799994E0,1.598199964E0,1.491899967E0
5.931411450E-1,-5.235999823E-1,-2.275599957E0,8.897999525E-1
6.228901040E-1,6.315000057E-1,-1.008399963E0,5.331000090E-1
6.430692700E-1,-7.245000005E-1,-9.792999625E-1,-8.446999788E-1
6.729869790E-1,-2.791800022E0,4.740299702E0,-1.608699918E0
6.930854160E-1,-3.098500013E0,4.617199898E0,-9.576999545E-1
7.229531240E-1,-1.764199972E0,-9.699999690E-1,1.883499980E0
7.431177080E-1,-2.584999800E-1,-3.278699875E0,1.698499918E0
7.729208330E-1,3.123999834E-1,-2.102799892E0,-5.401999950E-1
7.931624990E-1,-9.648000002E-1,-1.328099966E0,-9.049999714E-1
8.228442700E-1,2.413999885E-1,2.182299852E0,-1.418699980E0
8.431114580E-1,-6.187200069E0,-8.087999344E0,-3.147500038E0
8.729421870E-1,-1.457700014E0,-3.546899796E0,3.647999763E-1
8.931197910E-1,-1.079900026E0,-1.793599963E0,8.880999684E-1
9.228677080E-1,-2.447799921E0,-2.084599972E0,1.688899994E0
9.532817700E-1,-5.692999959E-1,6.474299908E0,1.494899988E0
9.829494790E-1,5.889999866E-1,5.184999943E0,4.565999806E-1
1.012854166E0,1.136799932E0,1.665499926E0,-4.490000010E-2
1.032886979E0,-8.657999635E-1,-3.051499844E0,-1.856099963E0
1.062827083E0,1.865999997E-1,-9.153100014E0,1.832000017E-1
1.093110416E0,-6.270999908E-1,-1.922399998E0,3.907699823E0
1.122830208E0,-2.573099852E0,-3.321999907E-1,1.061800003E0
1.143075520E0,-1.296599984E0,2.730000019E0,-1.353699923E0
1.172872395E0,8.472999930E-1,2.888700008E0,-1.009999990E0
1.193215104E0,7.267000079E-1,1.331200004E0,8.428999782E-1
1.222817187E0,-6.915999651E-1,1.713400006E0,1.906799912E0
1.243088020E0,-1.634499907E0,2.095700026E0,2.010699987E0
1.272858333E0,-7.249999642E-1,3.699800014E0,1.541799903E0
1.293105728E0,-2.295999974E-1,1.803499937E0,7.307999730E-1
1.322888020E0,1.695999950E-1,-4.637999833E-1,8.599999547E-1
1.343322916E0,1.543200016E0,-2.268800020E0,7.329999804E-1
1.372894791E0,-6.300000101E-2,-4.485199928E0,7.024999857E-1
1.393122395E0,-1.591999978E-1,-3.813199997E0,-4.189999774E-2
1.422884895E0,-7.979999483E-2,-8.450999856E-1,-1.089999974E-1
1.452056770E0,-5.829999968E-2,-3.858999908E-1,6.833999753E-1
1.472924478E0,4.666999876E-1,-1.127900004E0,1.448799968E0
1.493197916E0,-7.116000056E-1,-1.523999929E0,1.550599933E0
1.522826562E0,-7.292999625E-1,-4.797999859E-1,1.442699909E0
1.543069791E0,-5.033999681E-1,-7.828999758E-1,1.829399943E0
1.563132812E0,1.305099964E0,-7.515000105E-1,-3.349999785E-1
1.593368228E0,-1.674399972E0,-2.330299854E0,3.071099997E0
1.622836978E0,9.947999716E-1,-2.010900021E0,3.232299805E0
1.643071874E0,1.038200021E0,-1.653199911E0,2.587199926E0
1.672995312E0,-5.141000152E-1,3.073599815E0,1.828899980E0
1.693291666E0,-1.230999947E0,3.494699955E0,1.023499966E0
1.722863541E0,-2.248999834E0,1.340899944E0,2.861699820E0
1.743069791E0,2.324999869E-1,-3.269500017E0,2.983500004E0
1.772910416E0,9.929999709E-1,-1.834499955E0,3.397599936E0
1.793121353E0,-6.816999912E-1,-4.768999815E-1,-2.256099939E0
1.822821353E0,-2.400499821E0,9.860000014E-2,-4.365699768E0
1.843092708E0,-3.363699913E0,-2.102999985E-1,-1.868299961E0
1.872878124E0,-2.801599979E0,7.512999773E-1,3.908699989E0
1.893123437E0,-8.899999857E-1,-7.326999903E-1,2.520699978E0
1.922851041E0,1.783299923E0,-2.868899822E0,8.183999658E-1
1.954877603E0,2.820499897E0,-1.604900002E0,2.460999936E-1
1.982851562E0,1.848899961E0,2.788999975E-1,9.016000032E-1
2.012865103E0,6.358000040E-1,-2.699999809E-1,1.401299953E0
2.032916145E0,4.160000011E-2,-6.750999689E-1,1.130399942E0
2.052939583E0,-1.239999942E-2,-2.412000000E-1,4.639999941E-2
2.082848958E0,8.956999779E-1,4.749999940E-1,-1.553200006E0
2.102878645E0,2.112599850E0,1.627299905E0,-8.513999581E-1
2.123068228E0,-1.743499994E0,1.271199942E0,4.368999898E-1
2.143089583E0,-1.828999966E-1,1.184399962E0,1.093400002E0
2.172900520E0,3.213999867E-1,9.643999934E-1,2.218999863E0
2.193140103E0,7.710999846E-1,2.065500021E0,2.883899927E0
2.223040103E0,1.224099994E0,3.045300007E0,3.455799818E0
2.243098958E0,1.463299990E0,2.685199976E0,4.152499676E0
2.272895312E0,1.855699897E0,1.245100021E0,4.237199783E0
2.293233853E0,1.727999896E-1,5.511999726E-1,4.347099781E0
2.322843749E0,-7.177999616E-1,-2.481199980E0,3.858899832E0
2.343187499E0,-1.220600009E0,-4.265799999E0,5.339999795E-1
2.372896353E0,1.869999990E-2,-3.001899958E0,-8.477999568E-1
2.393329687E0,1.086199999E0,2.672399998E0,3.666599989E0
2.422868228E0,-8.331999779E-1,7.764699936E0,-2.340399981E0
2.451949478E0,-2.328899860E0,8.495800018E0,1.768299937E0
2.472933853E0,-2.637199879E0,6.965199947E0,2.000000000E0
2.493306249E0,1.150000002E-2,4.822199821E0,1.131799936E0
2.522851562E0,4.024300098E0,2.045899868E0,-7.946999669E-1
2.543126041E0,4.866899967E0,1.147099972E0,-2.509999990E0
2.572875520E0,1.901399970E0,-2.019899845E0,-2.405400038E0
2.593136457E0,-1.363899946E0,-5.219899654E0,-6.195999980E-1
2.622883332E0,-2.337699890E0,-5.111799717E0,6.514999866E-1
2.643067187E0,-2.154799938E0,-7.025199890E0,1.207799911E0
2.672861457E0,-1.414299965E0,-8.211299896E0,-1.925499916E0
2.693110416E0,9.942999482E-1,-5.388999939E0,-2.962399960E0
2.722853124E0,-3.199999779E-2,-2.374799967E0,-6.398999691E-1
2.743030207E0,-6.563000083E-1,2.071699858E0,6.434799671E0
2.773067707E0,-1.018199921E0,3.349999785E-1,-1.003819942E1
2.793086457E0,-1.997299910E0,-1.864899993E0,-7.592700005E0
2.822891145E0,5.338500023E0,2.533099890E0,-5.276700020E0
2.843149478E0,-9.521999955E-1,9.225999713E-1,-8.000999451E0
2.873092707E0,-3.415599823E0,1.703129959E1,1.323499918E0
2.893099478E0,2.485800028E0,5.597399712E0,7.078099728E0
2.922897916E0,3.069000006E0,-6.273999810E-1,4.120399952E0
2.955317707E0,3.563599825E0,2.844599962E0,-1.551800013E0
2.982859374E0,1.937299967E0,5.708499908E0,-1.472999901E-1
3.012911457E0,7.118700027E0,-1.057929993E1,8.857500076E0
3.032969791E0,-7.176599979E0,-3.498099804E0,7.221899986E0
3.062822916E0,-1.086300015E0,-6.147799969E0,-1.981299996E0
3.083021353E0,1.448199987E0,-9.269399643E0,-1.218699932E0
3.103072916E0,3.354099989E0,-7.871199608E0,3.746399879E0
3.133108853E0,1.578699946E0,2.192499876E0,-5.092899799E0
3.162854687E0,-5.882999897E-1,1.775790024E1,-5.820699692E0
3.182876562E0,-4.478600025E0,4.746599674E0,4.890999794E-1
3.203045312E0,-1.129899979E0,5.894999981E0,5.055399895E0
3.233136978E0,-7.396000028E-1,8.389100075E0,5.651999712E-1
3.262846353E0,2.686399937E0,6.150300026E0,-2.077800035E0
3.293275520E0,3.925400019E0,-3.154199839E0,-2.984699965E0
3.322872916E0,1.061999917E0,-4.049600124E0,-7.091999650E-1
3.343060937E0,1.104200006E0,-6.615799904E0,1.797399998E0
3.372878124E0,2.316999882E-1,-8.103499413E0,2.239300013E0
3.393188020E0,-6.969999522E-2,-9.707499504E0,-3.599999938E-3
3.422886978E0,2.824699879E0,-7.662099838E0,-4.763499737E0
3.452135416E0,-2.908000052E-1,4.710000008E-2,-1.282299995E0
3.472855728E0,-4.089799881E0,-3.319000006E0,5.533099651E0
3.493070832E0,-2.921900034E0,-1.775099993E0,7.855799675E0
3.523118228E0,-5.044600010E0,2.642579842E1,-1.798159981E1
3.553131249E0,-8.947099686E0,-1.752949905E1,-1.603299975E0
3.582888020E0,7.470299721E0,-8.066599846E0,-1.174399948E1
3.603062499E0,6.775699615E0,1.503549957E1,-1.841040039E1
3.632869791E0,3.214599848E0,1.333129978E1,1.095300007E1
3.663100520E0,8.844999671E-1,1.762799978E0,2.429199934E0
3.693343228E0,3.217199802E0,3.269199848E0,5.733900070E0
3.722869270E0,-3.982699871E0,2.172099829E0,1.166199923E0
3.743180728E0,-3.474099874E0,1.606699944E0,6.944999695E0
3.773020832E0,8.576999903E-1,-5.858699799E0,5.915999889E0
3.793100520E0,2.148200035E0,-1.055630016E1,1.604000032E-1
3.823015624E0,6.675999761E-1,-1.155089951E1,-4.344599724E0
3.843040624E0,2.594199896E0,-8.602299690E0,4.928999901E0
3.863080728E0,-3.812699795E0,-4.717999935E0,1.414199948E0
3.893095311E0,-4.943399906E0,-8.592000008E-1,-2.017999887E0
3.922880728E0,8.733999729E-1,2.865239906E1,-2.460299969E0
3.952722916E0,-9.726999998E-1,6.420199871E0,-7.708999515E-1
3.973370311E0,-1.050199986E0,8.206500053E0,1.217599988E0
4.002896353E0,1.688199997E0,9.885499954E0,-2.577800035E0
4.022897916E0,5.963000059E-1,2.981199980E0,-1.380999923E0
4.043050520E0,3.304999769E-1,1.297899961E0,-3.072999954E0
4.072886978E0,-2.678000033E-1,-4.718699932E0,-1.094200015E0
4.093191666E0,4.101999998E-1,-8.071399689E0,6.754999757E-1
4.122845311E0,4.316999912E-1,-1.239029980E1,3.223399878E0
4.143089061E0,-1.192199945E0,-1.566379929E1,3.367300034E0
4.172985936E0,3.422999978E-1,-1.413479996E1,-3.450699806E0
4.193341145E0,3.138199806E0,-4.986399651E0,-6.110599995E0
4.222864061E0,3.030699968E0,1.056229973E1,-9.353799820E0
4.243259374E0,-2.535799980E0,1.058580017E1,-1.294499993E0
4.272894270E0,-1.103949928E1,2.143239975E1,1.260339928E1
4.293093749E0,-7.906099796E0,-6.958999634E-1,-3.003679848E1
4.322844270E0,-5.095999718E0,-1.447339916E1,-4.424399853E0
4.343082811E0,5.475699902E0,-1.850539970E1,-4.969399929E0
4.373105207E0,3.126499891E0,6.290999889E0,-1.535869980E1
4.393111457E0,-6.912699699E0,5.346310043E1,-7.943199635E0
4.422844791E0,1.026719952E1,-3.980499983E0,3.144699812E0
4.452967186E0,2.181999922E0,1.307899952E0,2.926399946E0
4.482895832E0,-9.941999435E0,3.861599922E0,1.315199971E0
4.503102603E0,-7.948099613E0,1.816999912E0,5.794099808E0
4.532942186E0,8.460999727E-1,-3.815799952E0,3.972599983E0
4.553344791E0,5.043900013E0,-8.090700150E0,3.002499819E0
4.582978124E0,2.251399994E0,-7.819299698E0,2.368999869E-1
4.612908332E0,-3.277899981E0,-4.248399734E0,3.722199917E0
4.643306249E0,-4.630799770E0,-6.784999847E0,-1.584599972E0
4.672841145E0,-2.534899950E0,1.740000010E0,-2.286599874E0
4.693066665E0,3.969199896E0,2.018529892E1,-1.219299912E0
4.713148957E0,-2.673499823E0,1.209609985E1,1.071499944E0
4.743268228E0,-3.693899870E0,1.039729977E1,-7.453999519E-1
4.773079686E0,-6.333999634E-1,1.359980011E1,-8.235999942E-1
4.793139582E0,4.888499737E0,1.108959961E1,-2.240399837E0
4.822872395E0,3.975699902E0,4.901599884E0,-2.827899933E0
4.843056770E0,1.226499915E0,3.662000000E-1,-1.828299999E0
4.872885415E0,-1.790199995E0,-4.587699890E0,-1.235199928E0
4.893234374E0,-6.499999762E-1,-6.181900024E0,-1.202199936E0
4.922889061E0,-4.010499954E0,-1.368750000E1,-1.273999959E-1
4.953809374E0,-2.175799847E0,-2.010929871E1,-6.381199837E0
4.982860936E0,3.022899866E0,-1.246570015E1,-7.203599930E0
5.003037499E0,5.661000013E-1,-5.958999991E-1,-9.275699615E0
5.032889061E0,-6.504600048E0,1.238529968E1,2.730999947E0
5.052930728E0,-1.009799957E1,4.200200081E0,1.620170021E1
5.072957290E0,-1.373659992E1,1.600029945E1,2.286000013E0
5.093128645E0,1.964999884E-1,3.371799946E0,-3.160039902E1
5.122843228E0,4.504099846E0,-8.135799408E0,2.706699848E0
5.143301561E0,7.087599754E0,-1.054780006E1,-6.383699894E0
5.173127082E0,1.844699979E0,1.576799989E0,-1.258109951E1
5.203174478E0,-1.370440006E1,4.505839920E1,6.238699913E0
5.233056770E0,8.098799706E0,-1.821999907E0,3.191099882E0
5.263054165E0,3.660999835E-1,2.373199940E0,1.921700001E0
5.293233332E0,-6.651700020E0,1.878299952E0,3.602099895E0
5.322916665E0,-1.800699949E0,-5.223799706E0,6.049900055E0
5.343094790E0,2.320899963E0,-8.341799736E0,3.032699823E0
5.373273957E0,5.129799843E0,-9.913700104E0,-1.954699993E0
5.402823436E0,-2.777199984E0,-4.919799805E0,2.731600046E0
5.422858332E0,-5.912099838E0,-5.427199841E0,2.617599964E0
5.452638540E0,-8.334400177E0,-7.211799622E0,-1.143299937E0
5.473143749E0,-2.458999872E0,-1.972499967E0,-1.670899987E0
5.493416665E0,6.140500069E0,2.347279930E1,-2.104199886E0
5.522871874E0,-2.039099932E0,9.586299896E0,-4.963900089E0
5.543376561E0,-9.534899712E0,5.724599838E0,2.305299997E0
5.573140624E0,-5.119000077E-1,1.038449955E1,-2.969000041E-1
5.602855728E0,7.768899918E0,8.565400124E0,-4.567399979E0
5.622867186E0,5.165299892E0,6.271800041E0,-3.607899904E0
5.643171874E0,2.960099936E0,1.670499921E0,-3.468599796E0
5.672878644E0,-1.427799940E0,-2.434000015E0,-1.038599968E0
5.693172394E0,-2.231400013E0,-6.176399708E0,1.727999896E-1
5.722879686E0,-5.400399685E0,-1.385949993E1,9.226999879E-1
5.743274999E0,-3.683699846E0,-2.116209984E1,-4.763799667E0
5.773022915E0,6.131799698E0,-1.450339985E1,-6.632999897E0
5.793063540E0,4.853099823E0,-6.167199612E0,-9.882599831E0
5.822817707E0,-9.229999781E-2,1.731029892E1,-6.241199970E0
5.843084374E0,-9.897500038E0,1.199020004E1,9.282899857E0
5.872882290E0,-1.411739922E1,2.644149971E1,-1.129699945E0
5.893190103E0,-1.887899995E0,-4.658199787E0,-2.563889885E1
5.922843749E0,-3.741400003E0,-1.519659996E1,-1.246999979E0
5.955976040E0,9.134699821E0,-1.793439865E1,-1.426929951E1
5.983178644E0,3.185699940E0,4.233939743E1,-1.222869968E1
6.012984894E0,1.734499931E0,2.118700027E0,8.625100136E0
6.033118228E0,7.054199696E0,-4.326900005E0,3.717599869E0
6.062846353E0,9.539999813E-2,3.228399992E0,7.106999755E-1
6.093244269E0,-7.739699841E0,4.032400131E0,6.878699780E0
6.122839582E0,-1.154899955E0,-1.275599957E0,7.234499931E0
6.143108332E0,3.161899805E0,-4.938999653E0,-1.091699958E0
6.173045832E0,7.744899750E0,-9.847499847E0,4.587500095E0
6.193091665E0,4.257100105E0,-5.584300041E0,1.014470005E1
6.222840624E0,-8.881599426E0,-4.388700008E0,-4.815199852E0
6.243244269E0,-1.045549965E1,-8.436299324E0,-3.003799915E0
6.273056769E0,-4.147299767E0,-4.942399979E0,2.868399858E0
6.293095832E0,2.766299963E0,7.952799797E0,1.856199980E0
6.313133332E0,7.051499844E0,3.736199951E1,-3.897599936E0
6.343301561E0,-8.547100067E0,7.236099720E0,-1.313199997E0
6.372885936E0,-1.586999893E-1,1.144679928E1,8.892999887E-1
6.393384374E0,4.493199825E0,9.068799973E0,-3.067399979E0
6.422836978E0,5.643799782E0,4.695300102E0,-4.373399734E0
6.452430728E0,4.387999773E-1,-9.081999660E-1,-4.148900032E0
6.472924999E0,-1.560799956E0,-5.412799835E0,-3.022300005E0
6.493406769E0,-1.934499979E0,-7.642299652E0,-1.574199915E0
6.522819790E0,-5.151299953E0,-1.586649990E1,-8.673999906E-1
6.543083332E0,-3.546999991E-1,-2.288509941E1,-2.999899864E0
6.572863019E0,2.561699867E0,-1.367140007E1,-7.772899628E0
6.593333332E0,-2.143100023E0,-3.768999875E-1,-1.089540005E1
6.622888540E0,-1.085750008E1,1.320419979E1,5.501699924E0
6.643122394E0,-1.437559986E1,2.020189857E1,1.797279930E1
6.672922915E0,5.173899651E0,-8.307099342E0,-2.589639854E1
6.693105207E0,3.754499912E0,-1.111019993E1,-2.430099964E0
6.722816665E0,6.274399757E0,-1.398699951E1,-1.446949959E1
6.743063019E0,2.612099886E0,-1.734200001E0,-1.448259926E1
6.763068228E0,-3.398699999E0,4.812249756E1,-8.913800240E0
6.793356769E0,3.321699858E0,1.455999970E0,1.143289948E1
6.822845832E0,3.834800005E0,2.995899916E0,3.286599874E0
6.843092186E0,-1.808099985E0,4.785699844E0,7.015999556E-1
6.872880728E0,-6.762699604E0,-2.087000012E-1,9.166999817E0
6.893284373E0,-1.854399920E0,-4.154299736E0,5.092799664E0
6.922851040E0,8.917399406E0,-9.868399620E0,2.643899918E0
6.955798957E0,3.908799887E0,-4.848099709E0,4.851699829E0
6.982874478E0,-1.017499924E0,-5.021500111E0,1.505899906E0
7.013186978E0,-1.061170006E1,-8.222599983E0,-5.631499767E0
7.033304686E0,-9.603300095E0,-9.625699997E0,-3.286299944E0
7.062809373E0,-2.509899855E0,5.225699902E0,4.601200104E0
7.082859894E0,9.033999443E0,3.404000092E1,-1.600999981E-1
7.103081769E0,-5.240999699E0,1.146099949E1,-5.575900078E0
7.123110415E0,-7.491899967E0,1.003269958E1,3.477099895E0
7.143249998E0,-1.393399954E0,1.549809933E1,1.423999906E0
7.173160415E0,6.750699997E0,9.971599579E0,-4.839799881E0
7.202942707E0,3.043399811E0,4.717999935E0,-5.451299667E0
7.233113540E0,-5.561000109E-1,-3.668200016E0,-4.284599781E0
7.262822915E0,-2.490900040E0,-1.000809956E1,-2.683699846E0
7.282840103E0,-4.266599655E0,-1.492659950E1,-9.990999699E-1
7.302930728E0,-6.628499985E0,-2.901179886E1,-3.187599897E0
7.323053123E0,3.784799814E0,-2.133949852E1,-7.695899963E0
7.343268228E0,6.602999568E-1,-1.213039970E1,-1.373099995E1
7.372914061E0,2.794199944E0,1.720120049E1,-7.336299896E0
7.393079686E0,-8.870200157E0,2.346729851E1,1.618339920E1
7.423090103E0,-8.269700050E0,3.507799864E0,7.757400036E0
7.452167707E0,-1.575899959E0,2.932999849E0,-4.174440002E1
7.472921353E0,5.703000069E0,-1.039330006E1,9.743999839E-1
7.493122915E0,5.296999931E0,-9.219299316E0,-3.841099977E0
7.522836978E0,4.598999918E-1,-5.760099888E0,-1.232319927E1
7.543067707E0,-3.947299957E0,3.752750015E1,-1.027489948E1
7.572933332E0,5.182699680E0,5.712899685E0,1.134000015E1
7.593076040E0,9.042900085E0,-7.726999521E-1,2.378099918E0
7.622891665E0,-2.168299913E0,4.024799824E0,1.736599922E0
7.643106248E0,-9.702799797E0,-1.071099997E0,9.992499352E0
7.673195832E0,-1.790699959E0,-2.659699917E0,4.753999710E0
7.702838019E0,8.478799820E0,-5.736199856E0,-1.276399970E0
7.723085415E0,7.005799770E0,-1.021459961E1,1.251099944E0
7.752896353E0,-2.943599939E0,-4.038199902E0,7.280200005E0
7.772898957E0,-8.079699516E0,-4.939499855E0,1.543699980E0
7.793363019E0,-1.174549961E1,-8.380399704E0,-7.337999821E0
7.823123436E0,-4.636899948E0,-5.087199688E0,1.810199976E0
7.853108332E0,7.051099777E0,2.608689880E1,2.578899860E0
7.883047915E0,-6.578000069E0,8.783399582E0,-4.001500130E0
7.912939061E0,-1.726199985E0,1.543619919E1,4.394599915E0
7.933131769E0,1.252399921E0,1.589989948E1,-3.270999908E0
7.955544269E0,5.193099976E0,1.063149929E1,-5.316400051E0
7.982879686E0,9.850999713E-1,3.329699993E0,-3.915099859E0
8.002890102E0,-8.709999919E-1,-2.462100029E0,-2.467900038E0
8.033099998E0,-9.102999568E-1,-8.707200050E0,-2.207099915E0
8.062891665E0,-3.510499954E0,-1.616379929E1,-2.599299908E0
8.093136457E0,-2.385200024E0,-2.605299950E1,-4.063499928E0
8.123037498E0,2.173599958E0,-1.215590000E1,-1.329279995E1
8.143140623E0,3.058399916E0,-1.216599941E0,-1.188219929E1
8.172936977E0,-7.305699825E0,2.669540024E1,1.694630051E1
8.193126040E0,-1.624709892E1,7.459599972E0,9.499099731E0
8.222884373E0,-1.329699993E0,4.580800056E0,-3.621400070E1
8.243198957E0,-3.669999912E-2,-1.335929966E1,-9.281700134E0
8.264940102E0,6.756799698E0,-8.360699654E0,6.133999825E-1
8.293107290E0,5.075900078E0,-3.948699951E0,-1.627969933E1
8.322833852E0,-1.231619930E1,3.389030075E1,-3.132200003E0
8.343135936E0,-6.940499783E0,1.867160034E1,1.185219955E1
8.372956248E0,1.304439926E1,2.070999861E0,1.392899990E0
8.393169269E0,3.696499825E0,5.684599876E0,-1.699399948E0
8.422916144E0,-1.133459949E1,-1.429499984E0,8.687699318E0
8.454492707E0,-3.742399931E0,-4.035699844E0,5.416399956E0
8.482873957E0,7.404299736E0,-7.580399990E0,5.245000124E-1
8.512913019E0,4.773999751E-1,-4.727699757E0,4.363699913E0
8.532959373E0,-1.172899961E0,-5.573499680E0,3.481199980E0
8.563209373E0,-5.632799625E0,-7.607599735E0,-3.439299822E0
8.593083852E0,-7.924099922E0,-8.529399872E0,-1.275399923E0
8.622833852E0,9.873999953E-1,1.063789940E1,3.693799973E0
8.643130207E0,8.303199768E0,3.713909912E1,2.581999898E-1
8.672877602E0,-5.231100082E0,6.528699875E0,-3.783999979E-1
8.693108332E0,-2.109499931E0,1.189069939E1,3.485999823E0
8.713196873E0,2.108999938E-1,1.635849953E1,-3.978099823E0
8.743033332E0,7.398200035E0,7.870299816E0,-3.917500019E0
8.772923957E0,2.460000038E0,-8.545999527E-1,-1.270200014E0
8.793106248E0,-1.504199982E0,-3.461599827E0,-1.730199933E0
8.813252602E0,-1.152699947E0,-8.501399994E0,-2.873100042E0
8.843182290E0,-2.449199915E0,-1.480469990E1,-3.272300005E0
8.872908852E0,-2.193599939E0,-2.498900032E1,-6.952999592E0
8.893104165E0,1.772399902E0,-1.516689968E1,-1.142359924E1
8.913115102E0,1.889099956E0,-5.326499939E0,-1.532429981E1
8.953378644E0,-8.411799431E0,2.557059860E1,1.687199974E1
8.982947394E0,-5.992300034E0,1.442429924E1,1.142280006E1
9.012886977E0,8.849100113E0,-1.557369995E1,-3.142319870E1
9.033036456E0,-2.341500044E0,-1.635260010E1,1.159999967E0
9.062833331E0,7.940599918E0,-1.497389984E1,-9.273099899E0
9.083073436E0,3.299599886E0,1.109899998E0,-9.984999657E0
9.112969790E0,-2.117969894E1,4.845549774E1,-9.878399849E0
9.133130206E0,8.368899345E0,-7.304999828E-1,8.410399437E0
9.162985415E0,1.458599925E0,4.526000023E0,-2.124399900E0
9.193117186E0,-1.342539978E1,-7.501999736E-1,9.223499298E0
9.213118748E0,-8.701799393E0,-3.196499825E0,7.315299988E0
9.243081248E0,7.861199856E0,-5.277999878E0,2.562599897E0
9.272882811E0,9.713999748E0,-9.897899628E0,-6.366999745E-1
9.293111977E0,1.723299980E0,-2.624300003E0,7.848099709E0
9.322868227E0,-4.121299744E0,-5.777699947E0,-3.346000016E-1
9.343063540E0,-8.626199722E0,-1.026329994E1,-4.324899673E0
9.373051040E0,-4.927799702E0,-7.719299793E0,1.812500000E0
9.393072394E0,3.529399872E0,4.160200119E0,6.391999722E-1
9.413122394E0,1.449139977E1,4.543549728E1,-5.603899956E0
9.453907811E0,-8.013599396E0,6.632799625E0,8.715999722E-1
9.482833331E0,-1.251099944E0,1.213889980E1,-1.606899977E0
9.502861456E0,3.997099876E0,9.695099831E0,-5.464799881E0
9.523077602E0,6.285899639E0,6.738999844E0,-2.773499966E0
9.543105727E0,4.145299911E0,1.469499946E0,-1.624199986E0
9.572888540E0,3.838999867E-1,-4.979700089E0,-4.257999897E0
9.593419269E0,-3.649999797E-1,-7.859999657E0,-5.304800034E0
9.622832811E0,-2.533999920E0,-1.372579956E1,-4.647399902E0
9.643093748E0,-5.559400082E0,-2.555789948E1,-4.957099915E0
9.673227081E0,6.681799889E0,-1.528209972E1,-7.984999657E0
9.703040102E0,1.700599909E0,-2.481699944E0,-1.514559937E1
9.732981248E0,-9.819999695E0,2.724329948E1,2.034729958E1
9.762866144E0,-9.635700226E0,1.483089924E1,1.064470005E1
9.783071352E0,4.468100071E0,-1.674299955E0,-4.612859726E1
9.812865102E0,-4.283899784E0,-1.615909958E1,2.613999844E0
9.833048956E0,1.070039940E1,-1.310019970E1,-2.425799847E0
9.853083331E0,8.490099907E0,-1.617300034E1,-1.477399921E1
9.873288019E0,1.029510021E1,2.955169868E1,-6.820600033E0
9.893432290E0,-1.734519958E1,5.348309708E1,-4.324899673E0
9.923088019E0,1.164859962E1,-6.112999916E0,5.425699711E0
9.952793227E0,2.926800013E0,7.640599728E0,5.145999789E-1
9.973185415E0,-9.214099884E0,5.368700027E0,2.685400009E0
9.993194269E0,-1.393999958E1,7.059999704E-1,6.932299614E0
1.002285364E1,3.130499840E0,-6.770499706E0,-1.253899932E0
1.004332396E1,6.853899956E0,-8.519199371E0,-6.425999641E0
1.007293542E1,1.896699905E0,-7.947999954E0,4.435800076E0
1.009310104E1,-3.848500013E0,-7.303599834E0,1.974399924E0
1.012304114E1,-8.609099388E0,-5.786599636E0,-4.302199841E0
1.014310312E1,-5.073299885E0,-6.103699684E0,-1.516099930E0
1.017291719E1,1.777999997E0,-2.895299911E0,4.079400063E0
1.019315156E1,8.641599655E0,2.207349968E1,2.528599977E0
1.022282500E1,-1.957699895E0,1.841209984E1,-1.625899887E1
1.024331510E1,-6.275999546E-1,1.511199951E0,-1.785899997E0
1.027289792E1,-1.069700003E0,6.271499634E0,8.413999677E-1
1.029308646E1,1.333899975E0,2.886099815E0,-2.476300001E0
1.032284844E1,1.395999938E-1,-4.338799953E0,-1.270099998E0
1.034310625E1,-9.027999640E-1,-5.576999664E0,-1.624199986E0
1.037298906E1,-7.067999840E-1,-3.919199944E0,-6.787999868E-1
1.039310000E1,-6.067000031E-1,-5.418699741E0,1.602800012E0
1.042306771E1,-8.517000079E-1,-1.005939960E1,1.062099934E0
1.045398177E1,2.089599848E0,-1.171770000E1,-4.316400051E0
1.048285364E1,5.322400093E0,9.854999781E-1,-6.607699871E0
1.050298333E1,-9.788999557E-1,3.810400009E0,-1.017129993E1
1.053308750E1,-1.320989990E1,3.782239914E1,9.832399368E0
1.056303489E1,-6.336799622E0,-2.771800041E0,-6.993199825E0
1.059315937E1,-1.374499917E0,-2.931819916E1,8.623000145E0
1.062307448E1,1.735999870E1,-2.302689934E1,-1.638479996E1
1.064344635E1,3.639099836E0,7.785699844E0,-1.146640015E1
1.067307239E1,8.222100258E0,4.896170044E1,-1.350819969E1
1.069316094E1,-1.162999988E0,-3.081199884E0,6.606000066E-1
1.072286354E1,-2.330600023E0,-4.611000061E0,5.452399731E0
1.074304010E1,4.575399876E0,5.874799728E0,-2.901199818E0
1.076305937E1,-5.155399799E0,9.329799652E0,-1.759099960E0
1.079317083E1,-4.485799789E0,-5.911299706E0,5.662499905E0
1.082312135E1,7.372399807E0,-1.138969994E1,-7.246999741E0
1.085291614E1,5.023999810E-1,-1.482109928E1,1.619300008E0
1.087296406E1,-3.417500019E0,-4.625000000E0,-4.011999965E-1
1.089329218E1,-6.432999611E0,-4.870699883E0,-4.400199890E0
1.092306354E1,-4.177799702E0,-5.090399742E0,-7.580999732E-1
1.095527708E1,-9.685099602E0,1.725199890E1,1.892799973E0
1.098288229E1,-6.442999840E-1,2.639719963E1,3.206599951E0
1.101291146E1,-5.834999681E-1,1.031059933E1,7.444999814E-1
1.103291562E1,-1.013259983E1,1.088449955E1,4.010999680E0
1.105308229E1,7.967999935E0,5.735499859E0,-6.539099693E0
1.108289323E1,4.561699867E0,1.041700006E0,5.900999904E-1
1.111285833E1,3.826599836E0,-8.278200150E0,-1.996699929E0
1.113299062E1,-7.149999589E-2,-8.824399948E0,-4.270800114E0
1.116289114E1,-1.026999950E-1,-8.105899811E0,-5.154599667E0
1.119322187E1,-7.195999622E-1,-9.207599640E0,-4.539000034E0
1.122287656E1,2.598500013E0,-1.296549988E1,-9.926699638E0
1.124309687E1,-1.825799942E0,-9.269999862E-1,-7.830599785E0
1.127289583E1,-3.349299908E0,6.926499844E0,2.465999871E-1
1.129313281E1,-3.395499945E0,7.471999645E0,-6.598599911E0
1.132305364E1,-3.849799871E0,1.832609940E1,-1.923320007E1
1.134307552E1,-5.422800064E0,-8.994299889E0,2.127500057E0
1.137290156E1,5.791100025E0,-6.459599972E0,-9.535200119E0
1.139337604E1,4.741799831E0,-7.135099888E0,-1.268970013E1
1.142284948E1,9.953700066E0,2.859359932E1,-1.581939983E1
1.145324375E1,-3.722599983E0,1.396529961E1,6.736199856E0
1.148285000E1,-3.605399847E0,3.607100010E0,6.408899784E0
1.150287864E1,-7.784699917E0,2.672600031E0,-1.864599943E0
1.153310521E1,-4.993299961E0,-5.483099937E0,1.284099936E0
1.156284010E1,6.752099991E0,-8.581699371E0,3.460999966E0
1.158290416E1,5.235199928E0,-7.533999920E0,-7.713599682E0
1.161294375E1,-1.386199951E0,-6.419899940E0,4.558099747E0
1.164332760E1,-6.013099670E0,-8.804599762E0,3.640999794E-1
1.167285677E1,-2.883199930E0,-7.983099937E0,-6.278299809E0
1.169334531E1,2.501199961E0,-2.180599928E0,-1.514899969E0
1.172305677E1,3.980199814E0,3.849769974E1,-3.105099916E0
1.174306666E1,-2.762099981E0,1.182279968E1,-4.151700020E0
1.177313437E1,-3.238299847E0,1.326859951E1,2.049999952E0
1.180319635E1,9.422999620E-1,1.213210011E1,-3.265699863E0
1.183307448E1,4.832200050E0,6.701799870E0,-2.403499842E0
1.186285677E1,1.730399966E0,-1.782999992E0,-1.332000017E0
1.188292187E1,2.568999827E-1,-3.813799858E0,-4.143300056E0
1.191288333E1,-1.521899939E0,-8.482399940E0,-1.794499993E0
1.193289166E1,-2.256000042E0,-1.167939949E1,-3.041299820E0
1.195552604E1,5.758000016E-1,-1.327460003E1,-9.102299690E0
1.198289375E1,2.852499962E0,-1.181669998E1,-1.197949982E1
1.201336823E1,5.719999969E-2,-7.795000076E-1,-6.611499786E0
1.204307031E1,-3.217000008E0,1.382479954E1,5.195499897E0
1.207295521E1,-6.841999888E-1,2.792459869E1,6.368000031E0
1.209326771E1,5.980499744E0,-9.081799507E0,-2.904049873E1
1.212288489E1,-7.250999808E-1,-1.828989983E1,-2.041599989E0
1.214311927E1,1.075909996E1,2.888399839E0,-7.984399796E0
1.217304427E1,-5.272299767E0,6.923699856E0,-6.388399601E0
1.219311094E1,-7.754199982E0,3.493989944E1,-3.583999872E0
1.222290416E1,6.247000098E-1,7.906399727E0,4.683700085E0
1.224306510E1,1.171999931E0,2.205199957E0,4.098299980E0
1.227298594E1,-3.245999813E-1,5.887899876E0,1.280699968E0
1.229313437E1,-6.563999653E-1,2.043999910E0,1.786599994E0
1.232287344E1,2.051399946E0,-5.476199627E0,5.463599682E0
1.234309219E1,6.522299767E0,-1.049359989E1,4.490600109E0
1.237297812E1,6.039899826E0,-7.674999714E0,-2.355399847E0
1.239310104E1,3.761099815E0,-5.435299873E0,-1.414999962E0
1.242310156E1,-2.233599901E0,-1.103619957E1,-1.950399995E0
1.245450677E1,-6.499999762E-1,-7.734200001E0,-5.948999882E0
1.248312083E1,-4.271100044E0,7.747699738E0,4.135999978E-1
1.251317344E1,-5.520899773E0,1.965379906E1,-3.365700006E0
1.254312291E1,-3.141099930E0,8.045999527E0,5.720499992E0
1.257291146E1,-5.583899975E0,1.351089954E1,1.611000001E-1
1.259340833E1,-1.086499929E0,1.228569984E1,-2.374599934E0
1.262297864E1,-4.779999703E-2,3.786499977E0,-6.419999897E-2
1.264315937E1,6.502999663E-1,-1.443099976E0,-2.921999991E-1
1.267292448E1,2.941200018E0,-8.403599739E0,-3.381099939E0
1.269310833E1,2.352799892E0,-1.172319984E1,-5.439599991E0
1.272285052E1,3.137499809E0,-1.715629959E1,-1.199559975E1
1.274308333E1,7.121899605E0,-1.323859978E1,-6.911900043E0
1.277311250E1,2.867699862E0,-2.194000006E0,-6.127799988E0
1.279334323E1,-3.935499907E0,4.434299946E0,-2.736299992E0
1.282286927E1,-5.242300034E0,9.191299438E0,1.179899931E0
1.284329635E1,3.215999901E-1,1.339739990E1,-4.434099674E0
1.287288437E1,-1.916399956E0,-1.607119942E1,-9.522999763E0
1.289321771E1,-6.930999756E-1,1.688999981E-1,-4.992599964E0
1.292302864E1,-1.638399959E0,3.525699854E0,-5.855199814E0
1.295501666E1,1.122900009E0,2.213439941E1,7.288999557E-1
1.298293854E1,3.163199902E0,8.566900253E0,3.678900003E0
1.301302864E1,1.762899995E0,4.453299999E0,2.794800043E0
1.304341146E1,-3.999499798E0,-5.022999644E-1,-1.209900022E0
1.307305208E1,-2.676899910E0,-4.372399807E0,1.088500023E0
1.309319531E1,5.570999980E-1,-2.258499861E0,4.737499714E0
1.312285208E1,4.154999852E-1,-9.933499336E0,-2.779999934E-2
1.314323437E1,-1.565499902E0,-1.076819992E1,3.144399881E0
1.317296562E1,-4.769999981E-1,-7.248299599E0,-2.533599854E0
1.319312656E1,2.225499868E0,-5.267899990E0,-4.806399822E0
1.322285937E1,8.661399841E0,1.606889915E1,-4.309299946E0
1.324329271E1,-1.052999943E-1,1.052190018E1,-3.000999928E0
1.327322708E1,-3.278499842E0,1.863299942E1,4.652999878E0
1.330307135E1,-8.470999599E-1,1.574419975E1,1.539199948E0
1.333314375E1,1.486799955E0,7.617199898E0,2.741999924E-1
1.336292708E1,3.952699900E0,1.152899981E0,-4.440999925E-1
1.338309375E1,3.712799788E0,-2.459599972E0,-1.013800025E0
1.341294844E1,8.112999797E-1,-6.955499649E0,-1.743799925E0
1.343300260E1,-1.650799990E0,-1.060689926E1,-5.914899826E0
1.345454948E1,7.565999627E-1,-1.359639931E1,-1.005359936E1
1.348305625E1,6.195699692E0,-1.188859940E1,-1.128569984E1
1.351287916E1,5.223000050E-1,-3.693499804E0,-2.948899984E0
1.353320364E1,9.928999543E-1,6.368799686E0,3.708599806E0
1.356283489E1,-5.363599777E0,-2.836999893E0,-2.825299978E0
1.358288021E1,-2.290799856E0,3.909699917E0,-1.465799999E1
1.360288802E1,-1.502299905E0,6.624000072E-1,-9.820300102E0
1.362309844E1,2.522699833E0,1.083699989E1,5.518000126E-1
1.364311875E1,5.999000072E-1,3.871199846E0,-6.631199837E0
1.367332187E1,-4.932499886E0,-4.223499775E0,1.228699923E0
1.369338177E1,-1.236599922E0,1.168270016E1,2.502399921E0
1.372289791E1,5.447499752E0,1.425329971E1,1.879999936E-1
1.374308541E1,4.784100056E0,8.635600090E0,1.056200027E0
1.376309583E1,-1.780999899E-1,2.035500050E0,2.632799864E0
1.379343073E1,-1.725099921E0,-6.838599682E0,4.412399769E0
1.382285989E1,3.801899910E0,-6.157399654E0,2.202899933E0
1.384309687E1,5.104000092E0,-6.766599655E0,2.392999977E-1
1.387289375E1,1.921199918E0,-6.754199982E0,3.491999805E-1
1.389310104E1,-2.193599939E0,-1.029529953E1,2.793999910E0
1.392289791E1,-4.223199844E0,-8.890799522E0,-3.419699907E0
1.395387968E1,-3.326999843E-1,6.632699966E0,1.093699932E0
1.398303489E1,5.439000130E-1,1.454949951E1,-5.577199936E0
1.400323750E1,-1.529500008E0,1.046739960E1,7.164199829E0
1.403311927E1,-5.679699898E0,1.462500000E1,4.812999725E0
1.406306198E1,9.314000010E-1,1.230249977E1,-7.719999552E-2
1.409336406E1,5.193599701E0,6.988599777E0,3.137099981E0
1.412294062E1,1.820099950E0,-3.646000028E-1,-9.687999487E-1
1.414307760E1,1.089499950E0,-2.814999819E0,-3.820199966E0
1.417291875E1,1.927500010E0,-7.662199974E0,-4.255700111E0
1.419309323E1,7.105999589E-1,-1.277099991E1,-4.868400097E0
1.422286458E1,6.434799671E0,-1.840180016E1,-7.530299664E0
1.424310312E1,8.689999580E0,-1.484649944E1,-7.782899857E0
1.427292083E1,2.042500019E0,-2.313599825E0,-5.838999748E0
1.429333177E1,-7.784899712E0,1.610729980E1,2.103499889E0
1.432287344E1,-6.939099789E0,3.847699881E0,-6.284999847E-1
1.434332552E1,-6.967599869E0,4.672100067E0,-1.112829971E1
1.437297448E1,3.109999895E0,-1.621139908E1,-1.344900012E0
1.439317031E1,3.584100008E0,-1.062639999E1,-7.786099911E0
1.442288802E1,5.290599823E0,1.202000022E0,-1.235059929E1
1.445272708E1,-6.781299591E0,2.642339897E1,-4.393000126E0
1.447297291E1,-9.937600136E0,2.017280006E1,2.799700022E0
1.449330468E1,2.096199989E0,3.682199955E0,7.980799675E0
1.452285625E1,5.409199715E0,8.066699982E0,2.188999951E-1
1.454333021E1,-2.922600031E0,7.423699856E0,-2.324999869E-1
1.457292396E1,-3.615700006E0,-3.678099871E0,4.930200100E0
1.459331823E1,-9.757999778E-1,-2.088099957E0,4.780200005E0
1.462287604E1,6.487299919E0,-6.756000042E0,3.528699875E0
1.464307187E1,9.054900169E0,-6.345299721E0,-1.146199942E0
1.467289791E1,5.957799911E0,-4.017499924E0,2.458999872E0
1.469320833E1,-7.299999595E-1,-8.264200211E0,5.797899723E0
1.472286406E1,-6.888899803E0,-1.028170013E1,-3.797999859E0
1.474328906E1,-2.111099958E0,-2.595999956E0,-2.926199913E0
1.477306614E1,-1.156099916E0,2.273009872E1,-6.888399601E0
1.479337604E1,-1.838999987E0,1.071759987E1,3.281800032E0
1.482310521E1,-1.637799978E0,1.309329987E1,2.708299875E0
1.484312760E1,-2.241099834E0,1.388869953E1,-1.480000000E-2
1.487300156E1,2.759399891E0,1.203399944E1,-1.384400010E0
1.489322864E1,1.931999922E0,6.612899780E0,-3.971000016E-1
1.492305833E1,2.931999862E-1,-7.440999746E-1,-1.530699968E0
1.495534531E1,4.676999748E-1,-5.570199966E0,-3.162099838E0
1.498287396E1,-5.467999578E-1,-1.186129951E1,-4.889800072E0
1.500288073E1,9.106999636E-1,-1.535680008E1,-7.482699871E0
1.502291614E1,5.228699684E0,-1.924769974E1,-7.842999935E0
1.504311510E1,8.703199387E0,-1.600279999E1,-8.254599571E0
1.507296562E1,1.623499990E0,-2.284999847E0,-6.703799725E0
1.509318385E1,-7.692999840E0,1.535009956E1,3.783299923E0
1.512285625E1,-9.256899834E0,1.037479973E1,-7.949000001E-1
1.514312291E1,-8.082000017E-1,6.168799877E0,-1.554659939E1
1.517288281E1,-4.606800079E0,-1.220419979E1,3.517499924E0
1.519330208E1,7.794399738E0,1.696699977E0,-1.040310001E1
1.522307552E1,3.468999863E-1,1.002989960E1,-1.252250004E1
1.525311927E1,-5.767099857E0,1.621889877E1,3.566399813E0
1.528306614E1,2.832799911E0,6.084699631E0,9.493499756E0
1.531298177E1,3.343799829E0,5.100299835E0,2.954699993E0
1.534309791E1,-1.779999956E-2,-5.968999863E-1,1.582000017E0
1.537301302E1,-1.917799950E0,-4.540299892E0,3.047600031E0
1.539307083E1,2.369299889E0,-4.505000114E0,5.458799839E0
1.541328906E1,6.986399651E0,-6.588299751E0,2.219199896E0
1.545248958E1,4.129099846E0,-5.015699863E0,1.675999999E0
1.547289635E1,-1.773999929E-1,-6.601199627E0,9.879999757E-1
1.549313489E1,-4.813699722E0,-9.445699692E0,-2.813599825E0
1.552305937E1,-2.009099960E0,-1.058809948E1,-5.583099842E0
1.554307552E1,1.441200018E0,1.406099916E0,2.562000036E0
1.557288541E1,-7.405499935E0,3.213249969E1,-1.065559959E1
1.559322031E1,-2.847100019E0,9.353899956E0,8.028100014E0
1.562285833E1,-2.791800022E0,1.102509975E1,2.290400028E0
1.564308229E1,4.999999655E-4,1.115049934E1,-3.126999855E0
1.567296250E1,2.547899961E0,1.011429977E1,-5.924999714E-1
1.569339583E1,1.522899985E0,4.088299751E0,1.581200004E0
1.572288021E1,-1.614199996E0,-1.735299945E0,-7.497999668E-1
1.574312708E1,-1.785399914E0,-5.065599918E0,-2.025099993E0
1.577316614E1,1.060599923E0,-1.255399990E1,-5.613800049E0
1.580297135E1,3.867799997E0,-2.105069923E1,-7.628799915E0
1.583295364E1,9.305399895E0,-1.302309990E1,-8.639599800E0
1.585310364E1,4.296099663E0,-3.712699890E0,-6.938899994E0
1.588286354E1,-8.268499374E0,3.017659950E1,1.917599916E0
1.591290260E1,2.631399870E0,1.951359940E1,-2.138449860E1
1.593290989E1,1.668200016E0,-2.270129967E1,-6.143199921E0
1.595338594E1,-3.070400000E0,-2.611419868E1,-1.076200008E0
1.598290052E1,8.722899437E0,-1.534600019E0,-1.957779884E1
1.601289896E1,-1.188029957E1,5.266019821E1,-1.844879913E1
1.603300208E1,-5.893599987E0,1.604920006E1,1.263280010E1
1.606286666E1,3.105199814E0,-2.490000010E0,5.206999779E0
1.608287500E1,3.951900005E0,6.841699600E0,-8.945999742E-1
1.611287760E1,-2.300299883E0,3.303999901E-1,4.977699757E0
1.613294270E1,-5.289999843E-1,-6.752099991E0,4.698599815E0
1.615300208E1,1.180899978E0,-3.689599991E0,3.426699877E0
1.618285833E1,8.843999863E0,-5.524600029E0,1.651299953E0
1.620287760E1,8.675199509E0,-1.463699937E0,-1.333099961E0
1.623292396E1,1.452199936E0,-6.888999939E0,2.040400028E0
1.626290156E1,-6.735099792E0,-1.025059986E1,-2.636999786E-1
1.629309323E1,-1.674899936E0,-1.029519939E1,-4.079400063E0
1.632283594E1,6.209099770E0,1.546919918E1,4.500400066E0
1.634311302E1,-3.542500019E0,3.454520035E1,-1.310389996E1
1.637292916E1,-9.850999713E-1,7.350899696E0,7.581599712E0
1.639311458E1,-4.880799770E0,1.299930000E1,3.210999966E0
1.642286770E1,-9.030999541E-1,1.400459957E1,-2.461799860E0
1.645271718E1,2.796399832E0,9.082599640E0,-4.772999883E-1
1.647291875E1,2.291999906E-1,3.139499903E0,1.531399965E0
1.649343698E1,2.310999930E-1,-1.751299977E0,-3.013900042E0
1.652288437E1,8.849999905E-1,-7.941299915E0,-3.981599808E0
1.654312864E1,2.667999864E-1,-1.252750015E1,-5.399399757E0
1.657295573E1,2.233799934E0,-2.081309891E1,-7.007499695E0
1.659312500E1,9.746999741E0,-1.843669891E1,-9.330399513E0
1.662310937E1,5.297399998E0,-6.467799664E0,-7.535299778E0
1.664321823E1,-3.175199986E0,7.011799812E0,-8.877999783E-1
1.667291875E1,-5.881000042E0,8.613399506E0,4.725599766E0
1.669310208E1,-1.851300001E0,7.238299847E0,-1.459699988E0
1.672326927E1,5.176499844E0,-7.622699738E0,-1.544829941E1
1.675294166E1,1.199000001E0,-8.875599861E0,-5.740900040E0
1.677294896E1,4.732599735E0,1.569899917E0,-1.298909950E1
1.679342187E1,-5.829999968E-2,9.920499802E0,-5.541199684E0
1.682291093E1,-3.985699892E0,2.223270035E1,2.560299873E0
1.684327708E1,5.301099777E0,2.985199928E0,6.520099640E0
1.687311771E1,6.116699696E0,6.850199699E0,2.050799847E0
1.689334583E1,-4.402999878E-1,8.894199371E0,5.191999674E-1
1.692307291E1,-1.864099979E0,-6.152199745E0,5.995999813E0
1.695593385E1,2.655499935E0,-6.116799831E0,3.081300020E0
1.698307656E1,7.101999760E0,-4.241699696E0,3.014999926E-1
1.701289479E1,6.315099716E0,-1.818699956E0,2.354300022E0
1.703318281E1,2.094899893E0,-8.595899582E0,2.790099859E0
1.706295104E1,-8.942799568E0,-1.217119980E1,-5.335700035E0
1.709313125E1,-3.042299986E0,-7.413300037E0,-2.910399914E0
1.712288073E1,6.169199944E0,2.673709869E1,6.763899803E0
1.714326823E1,-6.030200005E0,2.166169930E1,-1.207889938E1
1.717289896E1,-3.063899994E0,1.127279949E1,4.710599899E0
1.719313229E1,-8.871999979E-1,1.413109970E1,1.221300006E0
1.722283020E1,5.215399742E0,1.511569977E1,-3.505599976E0
1.724348541E1,2.452899933E0,8.281999588E0,-3.737799883E0
1.727301041E1,1.971899986E0,6.505999565E-1,-2.537600040E0
1.729318593E1,1.415699959E0,-6.772399902E0,-3.469899893E0
1.732295260E1,9.763999581E-1,-1.194929981E1,-4.311899662E0
1.734315312E1,-9.649999738E-1,-1.564809990E1,-5.131499767E0
1.737286875E1,6.050499916E0,-2.356979942E1,-7.959299564E0
1.739331510E1,7.497099876E0,-1.441049957E1,-9.396599770E0
1.742282291E1,4.790999889E-1,4.501999855E0,-7.588199615E0
1.745264635E1,-6.657099724E0,1.650829887E1,4.805399895E0
1.747289375E1,-3.221699953E0,-2.252300024E0,-1.870499969E0
1.749309062E1,1.209999919E0,5.179899693E0,-1.436559963E1
1.752307812E1,-2.906199932E0,1.737100005E0,-5.960099697E0
1.754331250E1,9.711599350E0,6.271899700E0,-2.701900005E0
1.757296198E1,2.167099953E0,6.893899918E0,-1.204509926E1
1.759311146E1,-5.525000095E-1,1.335849953E1,1.364499927E0
1.762307708E1,-5.455699921E0,1.309480000E1,4.089600086E0
1.765307239E1,4.753699780E0,4.647999763E0,3.697599888E0
1.767309062E1,4.202999771E-1,7.096799850E0,2.492799997E0
1.769313177E1,-3.317499876E0,-6.705999970E-1,6.251199722E0
1.772300104E1,1.097399950E0,-2.621000051E0,3.031899929E0
1.774329635E1,3.885499954E0,-3.628999949E0,3.274099827E0
1.777288646E1,8.943300247E0,-9.045100212E0,1.997199893E0
1.779310729E1,1.028409958E1,-2.701299906E0,2.823799849E0
1.782292187E1,2.738699913E0,-7.036999702E0,4.634999931E-1
1.784326718E1,-4.341700077E0,-9.078399658E0,-1.774500012E0
1.787288646E1,-1.985599995E0,-7.236599922E0,-7.259199619E0
1.789309114E1,3.221999884E0,8.932600021E0,1.302199960E0
1.791331510E1,-4.638000011E0,2.732289886E1,-7.128099918E0
1.796208177E1,-2.359899998E0,1.939769936E1,3.620499849E0
1.798329948E1,-7.064999938E-1,1.944169998E1,-2.645499945E0
1.801329427E1,5.256899834E0,1.391930008E1,-3.136899948E0
1.804328281E1,4.302999973E0,1.056999922E0,-2.580799818E0
1.807286354E1,1.800399899E0,-7.314099789E0,-3.144799948E0
1.809315573E1,1.707199931E0,-1.108430004E1,-3.616799831E0
1.812290052E1,-1.245299935E0,-1.661219978E1,-7.013399601E0
1.814333281E1,5.065099716E0,-2.411940002E1,-8.225299835E0
1.817287291E1,9.055199623E0,-1.382539940E1,-9.801599503E0
1.819308906E1,2.517999887E0,-7.879699707E0,-9.050000191E0
1.822288593E1,-1.066619968E1,2.631849861E1,6.438499928E0
1.824305260E1,-6.431699753E0,1.116969967E1,6.749099731E0
1.826313125E1,-5.496299744E0,1.972640038E1,1.702799916E0
1.828320364E1,6.576999664E0,7.718099594E0,-2.420539856E1
1.831286614E1,4.610399723E0,-1.686709976E1,-9.503199577E0
1.833321875E1,1.206529999E1,-8.455900192E0,-1.337709999E1
1.836287291E1,5.862799644E0,1.034729958E1,-1.073799968E0
1.839334010E1,-3.594499826E0,2.600909996E1,2.992899895E0
1.842285364E1,8.775400162E0,-8.247999549E-1,7.296299934E0
1.845983958E1,8.046000004E-1,7.774199963E0,-2.349999994E-1
1.848737448E1,-2.923499823E0,-7.168099880E0,4.893499851E0
1.850738593E1,-1.919000000E-1,-4.011399746E0,2.971099854E0
1.852738698E1,4.935400009E0,-4.288899899E0,4.728600025E0
1.854836666E1,8.664999962E0,-3.647199869E0,8.442999721E-1
1.857743906E1,8.425700188E0,-2.312700033E0,6.846600056E0
1.859744843E1,2.840600014E0,-7.548799992E0,4.107599735E0
1.861769270E1,-5.152800083E0,-1.072099972E1,-2.036399841E0
1.864740104E1,-2.589999914E0,-8.793000221E0,-5.865399837E0
1.866828021E1,3.817999840E0,9.754999876E-1,8.475999832E-1
1.869739583E1,-7.464399815E0,2.346879959E1,-1.079529953E1
1.871758125E1,-2.245499849E0,7.693399906E0,8.793299675E0
1.874762500E1,-1.996199965E0,1.548769951E1,8.675000072E-1
1.876765312E1,2.378499985E0,1.545860004E1,-2.610299826E0
1.878820260E1,9.486000061E0,1.483780003E1,-5.152299881E0
1.881766979E1,4.788199902E0,3.960099936E0,-1.772099972E0
1.884735729E1,2.331300020E0,-5.151700020E0,-3.301199913E0
1.886755937E1,1.912999988E0,-8.194299698E0,-3.771499872E0
1.889739479E1,-6.758999825E-1,-1.290109921E1,-4.242899895E0
1.891757552E1,-1.689199924E0,-1.899139977E1,-6.943899632E0
1.895550573E1,7.799499989E0,-1.608639908E1,-9.960299492E0
1.898317656E1,2.574599981E0,-4.625799656E0,-8.449699402E0
1.901286041E1,-9.340000153E0,2.650169945E1,1.155439949E1
1.903289948E1,-6.251100063E0,5.283599854E0,7.620999813E-1
1.906312916E1,2.420899868E0,-8.285999894E-1,-8.764800072E0
1.909308073E1,2.726599932E0,-3.669600010E0,-7.622699738E0
1.912311458E1,-1.094900012E0,1.463630009E1,-1.231859970E1
1.915308593E1,-1.479699969E0,8.757299423E0,1.075399995E0
1.917311093E1,3.443099976E0,1.604010010E1,-7.299999706E-3
1.919334218E1,3.551499844E0,1.149559975E1,4.599400043E0
1.922292291E1,6.709499836E0,6.594599724E0,4.476900101E0
1.924319635E1,2.852999866E-1,1.063300014E0,2.384099960E0
1.927295885E1,-2.111899853E0,-2.807199955E0,4.849800110E0
1.929307968E1,2.263700008E0,-3.302899837E0,7.310799599E0
1.932291614E1,7.491099834E0,-4.018899918E0,1.142799973E0
1.934318229E1,6.926699638E0,-3.601999879E-1,1.994699955E0
1.937284583E1,4.688299656E0,-5.894599915E0,6.148299694E0
1.939308489E1,1.168999970E-1,-9.590399742E0,1.686699986E0
1.942315729E1,-7.183699608E0,-1.077180004E1,-6.440399647E0
1.945538646E1,-3.928000033E-1,5.350100040E0,-5.041999817E-1
1.948322239E1,-9.410299301E0,1.595119953E1,-5.503200054E0
1.951287135E1,-1.926299930E0,1.687010002E1,9.171999931E0
1.953294739E1,-7.930999994E-1,2.356629944E1,-4.983999729E-1
1.955308229E1,3.977099895E0,1.755579948E1,-2.980000019E0
1.958309427E1,8.959499359E0,7.464499950E0,-3.007900000E0
1.961284739E1,3.607299805E0,-3.486399889E0,-2.095700026E0
1.963285833E1,1.610599995E0,-8.374499321E0,-3.857899904E0
1.965285833E1,7.562999725E-1,-1.064089966E1,-4.021599770E0
1.967289896E1,-1.787299991E0,-1.223219967E1,-5.737400055E0
1.969309687E1,-3.562500000E0,-1.743299866E1,-8.466799736E0
1.972291927E1,7.826999664E0,-2.173229980E1,-9.554200172E0
1.974328906E1,7.186999798E0,-1.268939972E1,-1.007849979E1
1.977297500E1,-1.997099996E0,1.268639946E1,1.702099919E0
1.979341770E1,-7.766899586E0,3.115659904E1,1.013980007E1
1.982313177E1,-5.021999836E0,2.466230011E1,-4.125699997E0
1.984347187E1,9.448200226E0,-6.132199764E0,-1.944409943E1
1.987285104E1,4.155399799E0,-1.859370041E1,-5.018300056E0
1.989330573E1,1.111679935E1,-4.465699673E0,-1.404599953E1
1.992290260E1,-1.846300006E0,4.124099731E1,-1.000019932E1
1.995860937E1,4.307399750E0,5.856100082E0,1.170069981E1
1.998300885E1,8.220799446E0,1.899999976E0,6.308899879E0
2.001323489E1,1.052000001E-1,6.135399818E0,-4.439999759E-1
2.004339896E1,-2.431900024E0,-8.103699684E0,7.314999580E0
2.007288646E1,3.249599934E0,-6.134099960E0,2.218699932E0
2.009333489E1,5.879699707E0,-4.574800014E0,2.041699886E0
2.012291093E1,6.149199963E0,1.843599916E0,4.125400066E0
2.014310781E1,6.132199764E0,-3.871199846E0,5.184999943E0
2.017308020E1,-2.616299868E0,-1.167429924E1,-1.469699979E0
2.020292187E1,-7.456899643E0,-1.187939930E1,-5.307199955E0
2.022299739E1,7.699999809E-1,-8.033299446E0,-1.806000024E-1
2.024335677E1,6.724099636E0,6.058899879E0,5.439199924E0
2.027531510E1,-5.812599659E0,2.796579933E1,-1.578899956E1
2.030317083E1,-6.010999680E-1,1.253189945E1,4.884799957E0
2.033315937E1,7.231000066E-1,1.546459961E1,-1.211499929E0
2.036308698E1,6.257199764E0,1.205709934E1,-4.042299747E0
2.039313229E1,4.280900002E0,1.822399974E0,-2.433199883E0
2.042290416E1,-1.923999935E-1,-6.196899891E0,-3.421199799E0
2.045320885E1,1.378700018E0,-1.049619961E1,-4.196399689E0
2.048292396E1,-1.514299989E0,-1.909860039E1,-6.797499657E0
2.050310885E1,5.260799885E0,-2.613409996E1,-9.101200104E0
2.053299218E1,6.450299740E0,-1.126999950E1,-1.149639988E1
2.056287291E1,-5.024199963E0,1.918759918E1,1.942299962E0
2.058292291E1,-9.197699547E0,2.759569931E1,1.151359940E1
2.060293958E1,-5.063600063E0,-1.547399998E0,2.406199932E0
2.062299687E1,-6.805999875E-1,1.360829926E1,-9.315099716E0
2.064309218E1,6.545300007E0,-3.174599886E0,-1.805200005E1
2.067291562E1,6.445399761E0,-6.550499916E0,-1.583599925E0
2.069310625E1,1.064979935E1,-2.034499884E0,-1.153049946E1
2.072308489E1,-1.177799940E0,6.826200008E0,3.621699810E0
2.074310468E1,-7.478399754E0,4.063669968E1,-1.311639977E1
2.077299479E1,6.009099960E0,1.321999907E0,2.010499954E0
2.079307656E1,6.450299740E0,3.555499792E0,2.998100042E0
2.082307968E1,-8.741099358E0,5.506700039E0,4.191400051E0
2.084332500E1,-1.031629944E1,-2.279000044E0,6.519099712E0
2.087450208E1,1.510900021E0,-2.890399933E0,5.019799709E0
2.090313906E1,1.150769997E1,-9.771699905E0,-8.384000063E-1
2.093284427E1,3.843199968E0,-5.882299900E0,7.529799938E0
2.095653958E1,-6.199999712E-3,-7.319399834E0,3.887399912E0
2.098291927E1,-6.054800034E0,-8.958399773E0,-6.067499638E0
2.100314271E1,-3.049599886E0,-1.196449947E1,-4.476200104E0
2.103286198E1,5.274699688E0,-3.128499985E0,5.004000068E-1
2.106286823E1,-3.460599899E0,4.590299988E1,-1.037860012E1
2.108330052E1,-6.255599976E0,6.046700001E0,3.694399834E0
2.111285052E1,-1.164299965E0,1.191249943E1,3.123099804E0
2.113321458E1,2.348700047E0,1.190629959E1,-1.548099995E0
2.116295000E1,5.814599991E0,7.423699856E0,-2.456599951E0
2.119318906E1,2.012599945E0,4.749999940E-1,-1.478099942E0
2.122317291E1,1.108999997E-1,-5.737199783E0,-2.307899952E0
2.125284375E1,2.252599955E0,-1.152579975E1,-4.675899982E0
2.127304479E1,-2.289000005E-1,-1.584559917E1,-5.415299892E0
2.129310312E1,1.991999984E0,-2.267889977E1,-5.718100071E0
2.132291823E1,7.062299728E0,-1.074590015E1,-7.639799595E0
2.134329010E1,4.566299915E0,-3.225999832E0,-4.120500088E0
2.137290260E1,-1.020739937E1,3.593269730E1,6.929599762E0
2.139328177E1,-7.676099777E0,2.249670029E1,1.095799923E0
2.142288646E1,1.747999936E-1,-1.697290039E1,-1.132679939E1
2.145250520E1,9.106900215E0,-2.143199921E1,-3.798799992E0
2.147290000E1,1.093820000E1,-8.628700256E0,-1.667709923E1
2.149304218E1,5.317499638E0,2.346729851E1,-2.775399923E0
2.152300312E1,4.189799786E0,1.584159946E1,8.639100075E0
2.154305989E1,1.023499966E0,-3.956899881E0,9.112599373E0
2.157284271E1,4.219299793E0,4.713999748E0,-9.635999799E-1
2.159309739E1,-1.880800009E0,1.426539993E1,-3.515399933E0
2.162285781E1,-4.699999809E0,-3.174999952E0,7.693899632E0
2.164311510E1,-1.562299967E0,-4.161099911E0,5.494499683E0
2.167287291E1,5.463200092E0,-8.097199440E0,5.698400021E0
2.169326146E1,9.333199501E0,-4.475899696E0,4.286699772E0
2.172292656E1,8.540999413E0,-6.356999874E0,4.791500092E0
2.174318333E1,1.503999949E0,-6.739699841E0,8.215999603E-1
2.177321041E1,-9.708499908E0,-9.274399757E0,-4.431399822E0
2.180287031E1,-2.660599947E0,-8.793600082E0,9.296999574E-1
2.182289270E1,3.305099964E0,-2.174099922E0,1.139799953E0
2.184320677E1,5.437900066E0,4.413119888E1,-2.210299969E0
2.187282604E1,-7.517299652E0,4.301599979E0,6.371899605E0
2.189323646E1,-4.020199776E0,1.314479923E1,4.809299946E0
2.192289323E1,3.632699966E0,1.378029919E1,-3.627300024E0
2.195601770E1,7.482899666E0,9.370599747E0,-4.309199810E0
2.198291666E1,1.935499907E0,1.223599911E0,-1.819000006E0
2.200330416E1,-4.980999827E-1,-5.164499760E0,-2.758999825E0
2.203291093E1,8.759999871E-1,-8.856999397E0,-3.769199848E0
2.205293385E1,-1.886399984E0,-1.399469948E1,-3.308599949E0
2.207297864E1,-1.007399917E0,-2.213349915E1,-5.457599640E0
2.209318125E1,5.298199654E0,-2.159619904E1,-1.071619987E1
2.212293020E1,4.463299751E0,-6.999899864E0,-8.972199440E0
2.214313541E1,-1.993499994E0,1.713599968E1,3.673000038E-1
2.217300468E1,-7.026099682E0,3.849499941E0,3.140499830E0
2.219315572E1,1.334200025E0,-6.722899914E0,-6.570199966E0
2.222307343E1,5.467999578E-1,-2.914700031E0,-1.483019924E1
2.224313802E1,8.771900177E0,8.830399513E0,-3.011299849E0
2.226318125E1,7.781999588E0,-1.630999893E-1,-1.016489983E1
2.229338229E1,-1.000499964E0,-7.850199699E0,-5.390999794E0
2.232288645E1,-3.298300028E0,3.626020050E1,-1.107919979E1
2.234311979E1,4.308700085E0,1.929990005E1,7.355899811E0
2.236313125E1,7.476199627E0,3.778199911E0,2.904500008E0
2.238316250E1,4.392299652E0,2.858399868E0,2.443599939E0
2.240324739E1,-3.099900007E0,-4.639999941E-2,3.898000002E0
2.243289531E1,-1.533100009E0,-4.381199837E0,8.610099792E0
2.245337656E1,3.628799915E0,-5.920099735E0,5.387499809E0
2.248308072E1,5.018699646E0,-6.572099686E0,-2.482399940E0
2.251297395E1,2.621199846E0,-1.901499987E0,9.243199348E0
2.253298593E1,1.579699993E0,-5.442699909E0,5.642899990E0
2.256292135E1,-6.018599987E0,-1.155529976E1,-4.757199764E0
2.258292656E1,-3.736099958E0,-9.938599586E0,-4.573299885E0
2.260304687E1,2.068399906E0,-1.537199974E0,3.870999813E-1
2.263290677E1,2.447700024E0,3.267760086E1,-1.222389984E1
2.266307916E1,7.375999689E-1,5.068099976E0,6.398799896E0
2.269329375E1,-2.445499897E0,1.453099918E1,9.138000011E-1
2.272309739E1,2.679199934E0,1.383069992E1,-1.950199962E0
2.274314479E1,4.554399967E0,1.012849998E1,-8.729999512E-2
2.277485625E1,1.220199943E0,1.056100011E0,-1.287999898E-1
2.280292604E1,7.117999792E-1,-7.224400043E0,-5.413599968E0
2.282293229E1,8.068999648E-1,-1.084840012E1,-6.467099667E0
2.284313489E1,-2.963199854E0,-1.530289936E1,-5.646699905E0
2.287286302E1,4.907599926E0,-2.727459908E1,-7.486399651E0
2.289330312E1,5.293900013E0,-1.514890003E1,-1.166189957E1
2.292293437E1,4.551899910E0,1.667400002E0,-4.977200031E0
2.295590052E1,-7.657699585E0,2.427779961E1,1.030169964E1
2.298320781E1,-1.809999906E-2,3.739799976E0,-7.616999745E-1
2.301288906E1,1.765100002E0,-1.279220009E1,-1.134109974E1
2.304314010E1,8.590700150E0,-6.254999638E0,-8.975199699E0
2.307288125E1,5.276700020E0,6.448099613E0,-9.437500000E0
2.309307448E1,-1.348880005E1,3.281349945E1,-9.012899399E0
2.312289791E1,4.039999843E-2,5.418399811E0,1.062090015E1
2.314308958E1,5.313199997E0,2.424900055E0,3.479899883E0
2.317303802E1,1.633000016E0,8.567099571E0,3.383499861E0
2.319310937E1,-2.233599901E0,-9.011999965E-1,7.314799786E0
2.322295104E1,1.297199965E0,-3.144999981E0,2.361099958E0
2.324312291E1,5.986299992E0,-7.223099709E0,4.587599754E0
2.326318020E1,7.360799789E0,-5.336800098E0,9.119599342E0
2.329320833E1,9.320799828E0,-1.551499963E0,4.872699738E0
2.332297448E1,-2.426800013E0,-8.770299911E0,7.853999734E-1
2.334309010E1,-9.055399895E0,-8.511899948E0,-9.832999706E-1
2.337286406E1,-4.528999805E0,-7.657999992E0,1.832499981E0
2.339309218E1,2.555799961E0,-3.465600014E0,4.098999798E-1
2.342288333E1,6.782499790E0,3.457880020E1,-1.227009964E1
2.345271822E1,-2.746199846E0,7.801899910E0,7.124199867E0
2.347290677E1,1.329999976E-2,1.715799904E1,9.889999777E-2
2.349328645E1,-1.630399942E0,1.451130009E1,-2.397500038E0
2.352328698E1,3.933699846E0,1.083199978E1,-2.787799835E0
2.355286458E1,2.096499920E0,4.031799793E0,-8.083999753E-1
2.357293385E1,5.403999686E-1,-1.805400014E0,-2.060099840E0
2.359306614E1,-1.159999967E-1,-6.578899860E0,-4.231599808E0
2.362292187E1,-8.379999548E-2,-1.320529938E1,-4.717700005E0
2.364311770E1,-3.698099852E0,-2.322900009E1,-4.940000057E0
2.367303281E1,6.048699856E0,-2.355529976E1,-1.162389946E1
2.369333385E1,4.878599644E0,-1.193569946E1,-1.042899990E1
2.372319948E1,-3.495699883E0,1.608530045E1,3.790399790E0
2.375289687E1,-8.227499962E0,1.270359993E1,7.609499931E0
2.378313541E1,6.778800011E0,2.766969872E1,-1.819669914E1
2.380313906E1,5.580599785E0,-9.026499748E0,-1.829959869E1
2.383288958E1,8.940000087E-2,-1.867599869E1,-5.339299679E0
2.385312187E1,7.818399906E0,-1.021570015E1,-1.203520012E1
2.387315677E1,4.334099770E0,6.039000034E0,-1.011999995E-1
2.390289895E1,-2.212199926E0,3.494989777E1,3.888799906E0
2.393286250E1,6.335399628E0,-4.974899769E0,2.831199884E0
2.395875989E1,6.608199596E0,6.568500042E0,-6.955999732E-1
2.398290781E1,-5.211800098E0,4.633100033E0,7.917899609E0
2.401288802E1,-2.354699850E0,-1.583899975E0,3.545599937E0
2.403291510E1,1.888700008E0,-5.152899742E0,2.638099909E0
2.405303698E1,5.282299995E0,-8.202199936E0,2.363699913E0
2.408290885E1,5.596399784E0,-5.980700016E0,6.074100018E0
2.410310468E1,4.909100056E0,-6.379099846E0,6.253299713E0
2.413288541E1,5.409999937E-2,-5.350899696E0,8.937999606E-1
2.416290260E1,-7.367599964E0,-7.339399815E0,-6.997299671E0
2.419326979E1,-3.709999919E-1,-1.152699947E0,-1.671099901E0
2.422294948E1,-4.430799961E0,2.888819885E1,-1.086489964E1
2.424314062E1,-3.153299809E0,4.649499893E0,7.586699963E0
2.427287083E1,-3.860399961E0,1.710799980E1,1.389500022E0
2.429321875E1,1.191999987E-1,1.536199951E1,-1.686800003E0
2.432392500E1,7.458499908E0,1.029489994E1,-3.462199926E0
2.435286718E1,2.525799990E0,2.124300003E0,-2.569399834E0
2.437288958E1,1.165999994E-1,-1.812399983E0,-3.338599920E0
2.439330468E1,-8.869999647E-2,-7.549599648E0,-4.466000080E0
2.442293645E1,-8.915999532E-1,-1.315460014E1,-4.866699696E0
2.445412343E1,-4.020100117E0,-2.694680023E1,-5.120399952E0
2.448289739E1,6.291699886E0,-1.481619930E1,-1.069919968E1
2.451296927E1,2.126199961E0,-3.599999845E-1,-6.516999602E-1
2.454311979E1,-7.521399975E0,2.704089928E1,1.217889977E1
2.457286093E1,-4.283199787E0,1.694759941E1,-3.859499931E0
2.459324948E1,-2.298899889E0,1.249400020E0,-2.095419884E1
2.462290573E1,1.223599911E0,-1.743009949E1,-5.728699684E0
2.464309375E1,1.199349976E1,-6.395199776E0,-1.239960003E1
2.467284062E1,2.703999996E0,1.380979919E1,-1.729699969E0
2.469306354E1,-1.398489952E1,5.275559998E1,-1.138119984E1
2.472290000E1,1.803499937E0,-4.618299961E0,4.200999737E0
2.474315260E1,4.994400024E0,-2.764199972E0,1.463299990E0
2.477307448E1,1.200199962E0,1.131649971E1,-1.010299921E0
2.479310416E1,-8.106999397E0,2.897699833E0,9.134699821E0
2.482289114E1,-2.288599968E0,-3.754599810E0,4.729300022E0
2.484313385E1,1.812599897E0,-8.029500008E0,5.337299824E0
2.487306614E1,5.339099884E0,-1.023029995E1,2.841399908E0
2.489317083E1,6.850999832E0,-6.912499905E0,3.687399864E0
2.492287916E1,2.662499905E0,-5.803400040E0,3.271499872E0
2.495589843E1,-6.798399925E0,-5.973999977E0,-4.390100002E0
2.498311093E1,-5.147999763E0,-9.310699463E0,-5.129499912E0
2.501312031E1,7.198299885E0,2.285890007E1,6.509399891E0
2.504321562E1,-8.023499489E0,8.892099380E0,-4.396299839E0
2.507310416E1,-2.752799988E0,1.518129921E1,1.019799948E0
2.510310781E1,1.993699908E0,1.214059925E1,-3.675099850E0
2.513311250E1,5.488800049E0,1.026209927E1,-3.837299824E0
2.516305416E1,5.723999739E-1,2.974699974E0,-4.201600075E0
2.518318802E1,-9.576999545E-1,-2.880300045E0,-3.549799919E0
2.521289583E1,-1.222499967E0,-1.135299969E1,-2.326999903E0
2.524312968E1,-2.753499985E0,-2.061289978E1,-3.568300009E0
2.527297135E1,5.284199715E0,-2.333829880E1,-1.025199986E1
2.529315468E1,4.854499817E0,-1.412379932E1,-8.388699532E0
2.531316927E1,8.913999796E-1,-4.806900024E0,-4.083300114E0
2.534321406E1,-6.255799770E0,2.265059853E1,1.323369980E1
2.537309895E1,-2.693399906E0,-1.940099955E0,-2.438599825E0
2.540336198E1,-4.244999886E0,6.269199848E0,-1.958799934E1
2.543294323E1,4.915499687E0,-2.545000017E-1,-5.294399738E0
2.545484218E1,8.476499557E0,1.513299942E0,-6.686299801E0
2.548286614E1,-2.926599979E0,6.618799686E0,-8.881799698E0
2.550293906E1,-7.054299831E0,2.351630020E1,-4.214600086E0
2.553284687E1,8.992999792E-1,9.670000076E0,4.646299839E0
2.555288177E1,6.946399689E0,3.126999855E0,3.522699833E0
2.557300000E1,6.066699982E0,7.926299572E0,1.113600016E0
2.559307708E1,-1.953699946E0,2.683599949E0,5.906099796E0
2.561311354E1,-3.129499912E0,-3.376999795E-1,7.771599770E0
2.564320000E1,1.063899994E0,-4.767699718E0,6.677599907E0
2.567309895E1,3.892999887E0,-8.702699661E0,3.385599852E0
2.570288333E1,7.549299717E0,-5.797199726E0,4.927999973E0
2.572293229E1,4.666699886E0,-5.687299728E0,4.237499714E0
2.574311718E1,-1.089200020E0,-5.904900074E0,3.064800024E0
2.577341198E1,-9.795499802E0,-7.854699612E0,-4.006299973E0
2.580309322E1,-2.529000044E0,-1.005049992E1,-3.947999954E0
2.583285208E1,9.607299805E0,3.517760086E1,1.450099945E0
2.585291250E1,-4.159999847E0,2.782810020E1,-1.604959869E1
2.587305781E1,-2.395299911E0,6.342899799E0,8.385600090E0
2.589329635E1,-6.735399723E0,1.644439888E1,3.838899851E0
2.592324218E1,5.370299816E0,1.128389931E1,-3.010900021E0
2.595563750E1,5.561800003E0,6.377699852E0,-1.828499913E0
2.598291666E1,7.662000060E-1,6.268999577E-1,-3.224399805E0
2.600291979E1,-4.928999841E-1,-4.672699928E0,-6.337599754E0
2.603290729E1,-8.265999556E-1,-1.176480007E1,-4.127399921E0
2.606294739E1,-4.056200027E0,-2.459199905E1,-2.688899994E0
2.609334270E1,2.488199949E0,-1.866559982E1,-9.185599327E0
2.612317291E1,2.338799953E0,-5.107100010E0,-4.925699711E0
2.614319895E1,-5.482399940E0,1.602009964E1,9.835000038E-1
2.617288177E1,-6.922899723E0,6.685400009E0,9.444600105E0
2.619308593E1,5.563299656E0,-4.399999976E-2,-1.200559998E1
2.622287656E1,1.501199961E0,-1.041059971E1,-1.263289928E1
2.624337708E1,5.719899654E0,-1.559999958E-2,-6.834799767E0
2.627290052E1,2.887699842E0,1.161049938E1,-1.097069931E1
2.629313229E1,-2.747200012E0,1.149909973E1,-5.175600052E0
2.631313645E1,1.272499919E0,1.157859993E1,6.083999872E-1
2.634335937E1,2.326599836E0,8.453399658E0,3.860299826E0
2.637311666E1,3.195999861E0,8.387700081E0,4.624199867E0
2.639339010E1,-6.771000028E-1,3.755999804E0,5.714200020E0
2.642311198E1,-2.381700039E0,0.000000000E0,7.105899811E0
2.645848698E1,4.355700016E0,-6.166499615E0,6.129899979E0
2.648297187E1,4.371500015E0,-7.737299919E0,3.443300009E0
2.650298281E1,4.991099834E0,-5.199899673E0,5.112400055E0
2.653305156E1,1.873499990E0,-4.481299877E0,3.296700001E0
2.656317500E1,-1.089400005E1,-9.389900208E0,-3.643299818E0
2.659330468E1,-4.382100105E0,-8.305199623E0,-4.380000010E-2
2.662301875E1,7.869499683E0,2.796649933E1,4.673999846E-1
2.664312812E1,-5.784299850E0,1.621299934E1,-8.910299301E0
2.666319322E1,-8.812999725E-1,8.843400002E0,6.281599998E0
2.669317083E1,-2.936999798E-1,1.536520004E1,2.723999918E-1
2.671319635E1,3.996599913E0,1.285459995E1,-1.413100004E0
2.674346093E1,4.131299973E0,7.330799580E0,-2.640199900E0
2.677494374E1,5.246999860E-1,2.899000049E-1,-2.518299818E0
2.680292968E1,-1.077499986E0,-6.628200054E0,-3.623600006E0
2.683291718E1,-2.395099878E0,-1.266149998E1,-4.308099747E0
2.686307395E1,-1.379299998E0,-2.497489929E1,-5.758199692E0
2.688322448E1,5.126299858E0,-2.129430008E1,-1.012020016E1
2.691313177E1,3.467799902E0,-6.422499657E0,-6.018799782E0
2.695593072E1,-6.905900002E0,2.268059921E1,9.619199753E0
2.698293177E1,3.396799803E0,1.614019966E1,-9.642099380E0
2.701291614E1,-2.580699921E0,-2.123979950E1,-1.229039955E1
2.703292760E1,2.589099884E0,-1.668490028E1,-9.197299957E0
2.705311562E1,4.686899662E0,-3.563599825E0,-1.317739964E1
2.708330000E1,-9.545800209E0,4.884459686E1,-1.320729923E1
2.711312448E1,5.600999594E-1,2.925699949E0,7.515299797E0
2.714336927E1,7.776199818E0,4.202499866E0,-6.254999638E-1
2.717285572E1,-1.597399950E0,7.343799591E0,4.002799988E0
2.719338177E1,-3.612299919E0,-2.159699917E0,8.652099609E0
2.722294375E1,-2.656999826E-1,-3.421899796E0,4.816400051E0
2.724336562E1,5.336199760E0,-7.543599606E0,6.017699718E0
2.727296406E1,8.197699547E0,-3.696099997E0,4.292299747E0
2.729319479E1,8.387399673E0,-2.616499901E0,4.405299664E0
2.732319114E1,-2.808599949E0,-7.177799702E0,2.217700005E0
2.735299166E1,-1.377609921E1,-9.652699471E0,-4.230099678E0
2.738291458E1,-3.762699842E0,-4.844399929E0,-2.131599903E0
2.741289270E1,5.257299900E0,3.135429955E1,-5.294399738E0
2.743317708E1,-4.450599670E0,1.011199951E1,-1.237100005E0
2.745357291E1,-1.820799947E0,1.610849953E1,6.151000023E0
2.748309062E1,9.539999962E-1,1.939159966E1,-1.906099916E0
2.751308385E1,9.246799469E0,9.842700005E0,-2.271100044E0
2.754310052E1,3.220700026E0,-1.280999929E-1,-2.949399948E0
2.757288541E1,1.197999939E-1,-7.284899712E0,-3.707700014E0
2.759337656E1,-7.967000008E-1,-9.567099571E0,-4.184999943E0
2.762290468E1,-4.240099907E0,-1.260009956E1,-6.619099617E0
2.764312864E1,-4.425300121E0,-1.970109940E1,-8.168299675E0
2.767316302E1,2.533599854E0,-1.483209991E1,-9.541399956E0
2.770291822E1,1.051499963E0,-2.121500015E0,-4.181999683E0
2.772292812E1,-3.487699986E0,1.816950035E1,6.438499928E0
2.774319479E1,-7.249599934E0,1.965729904E1,6.405900002E0
2.777312760E1,1.372839928E1,1.287589931E1,-2.326070023E1
2.779332239E1,2.587199926E0,-1.842910004E1,-1.653159904E1
2.782308072E1,3.818799973E0,-1.906779861E1,-3.710299969E0
2.784332395E1,3.353099823E0,-1.819599986E0,-1.223939991E1
2.787283697E1,-1.527219963E1,6.232629776E1,-1.920680046E1
2.789313437E1,3.460299969E0,4.835099697E0,1.007100010E1
2.792296250E1,6.101999760E0,1.940599918E0,5.051199913E0
2.795881197E1,-6.412999630E0,6.844999790E0,6.594899654E0
2.798294531E1,-3.501299858E0,-2.805999994E0,3.677099943E0
2.801290000E1,3.535599947E0,-5.751199722E0,2.338500023E0
2.804319062E1,2.492199898E0,-5.701200008E0,5.862400055E0
2.807284583E1,2.257099867E0,-3.684299946E0,7.114599705E0
2.809316145E1,2.074800014E0,-8.832599640E0,1.482199907E0
2.812292395E1,-5.536399841E0,-1.042729950E1,-3.631699800E0
2.814309531E1,-4.117000103E0,-8.901100159E0,-1.087100029E0
2.817335000E1,1.340499997E0,-4.326299667E0,-2.107599974E0
2.820288958E1,7.616799831E0,3.960099792E1,-9.487599373E0
2.822302708E1,-8.440400124E0,1.169539928E1,-1.234630013E1
2.824309062E1,-2.959699869E0,9.351300240E0,6.607499599E0
2.827394739E1,-1.872999907E0,1.590149975E1,-2.599799871E0
2.830300677E1,3.183499813E0,1.135619926E1,-9.713999629E-1
2.833288906E1,1.043799996E0,4.949800014E0,3.012999892E-1
2.836292239E1,3.790999949E-1,-1.823099971E0,-4.929199696E0
2.839312708E1,1.120700002E0,-8.992899895E0,-5.686199665E0
2.842291041E1,-3.324999809E0,-1.737689972E1,-6.925899982E0
2.845273750E1,4.776499748E0,-2.258419991E1,-1.020109940E1
2.847304635E1,5.404999733E0,-1.264260006E1,-1.012029934E1
2.849322447E1,3.437500000E0,-5.316400051E0,-6.442299843E0
2.852287916E1,-6.183199883E0,2.600529861E1,7.853999615E0
2.854313906E1,-9.568299294E0,1.017269993E1,4.274099827E0
2.857291875E1,1.281399965E0,3.146999836E0,-1.801899910E1
2.859309583E1,1.037999988E0,-9.767999649E0,-1.317649937E1
2.862293124E1,5.977699757E0,-1.442600012E0,-5.393300056E0
2.864313333E1,5.754399776E0,2.386899948E0,-1.287889957E1
2.867293333E1,-6.830499649E0,2.387819862E1,-3.325699806E0
2.869310312E1,-1.662099957E0,1.774619865E1,3.756500006E0
2.871312291E1,3.851399899E0,8.500800133E0,3.416899920E0
2.874311666E1,1.136709976E1,7.690799713E0,1.843499899E0
2.877348593E1,-4.892600060E0,6.304000020E-1,6.559299946E0
2.880295416E1,-3.815799952E0,-2.925499916E0,6.779199600E0
2.882314010E1,6.687999964E-1,-4.448100090E0,6.037600040E0
2.885290260E1,6.871299744E0,-6.058399677E0,3.777999878E0
2.888290052E1,5.798999786E0,-4.368899822E0,3.892599821E0
2.891323645E1,-6.560599804E0,-8.061399460E0,1.455699921E0
2.895294583E1,-9.903399467E0,-8.013400078E0,-2.012799978E0
2.898311406E1,3.501699924E0,5.226500034E0,4.923299789E0
2.901310781E1,-4.008800030E0,2.567609978E1,-1.342719936E1
2.904309635E1,-9.280999899E-1,1.497269917E1,4.431099892E0
2.907313593E1,-3.359999880E-2,1.472379971E1,-1.445999891E-1
2.910312031E1,4.073100090E0,7.918399811E0,-2.312500000E0
2.913299479E1,1.031800032E0,1.649999991E-2,-3.274999857E0
2.915311666E1,-1.189999934E-2,-4.695099831E0,-4.951299667E0
2.918288958E1,2.953999937E-1,-9.992499352E0,-5.755899906E0
2.920289739E1,-3.222499847E0,-1.449519920E1,-5.082099915E0
2.922292500E1,-5.087500095E0,-2.703039932E1,-5.436399937E0
2.924325156E1,7.378900051E0,-2.376179886E1,-9.949899673E0
2.927403072E1,6.642999649E0,-6.675099850E0,-9.116700172E0
2.930292760E1,-2.449599981E0,2.928019905E1,3.756500006E0
2.933290833E1,-1.029290009E1,9.089699745E0,1.454199910E0
2.935311510E1,2.029299974E0,-3.412099838E0,-1.841090012E1
2.938293072E1,-4.552199841E0,-1.442079926E1,-5.790099621E0
2.941309479E1,8.226399422E0,4.739500046E0,-9.336199760E0
2.945495208E1,-4.063399792E0,1.424379921E1,-2.533999920E0
2.948292812E1,3.956499815E0,1.296780014E1,2.519500017E0
2.951325208E1,9.151800156E0,5.667599678E0,3.526000023E0
2.954311562E1,-3.524399996E0,4.161600113E0,4.348499775E0
2.957286822E1,-6.023499966E0,-1.719099998E0,6.507699966E0
2.959307604E1,-3.102999926E-1,-1.972399950E0,8.751999855E0
2.962318333E1,1.263379955E1,-8.012299538E0,1.600899935E0
2.964319270E1,9.752499580E0,-6.088699818E0,2.754499912E0
2.967304791E1,-7.128999829E-1,-4.342799664E0,1.876099944E0
2.969332708E1,-6.767999649E0,-6.962999821E0,7.813000083E-1
2.971342916E1,-1.102670002E1,-1.023820019E1,-3.192899942E0
2.974310885E1,-1.793699980E0,-7.185099602E0,-2.474999875E-1
2.976317916E1,9.444999695E0,1.896469879E1,8.897399902E0
2.979329687E1,-6.851099968E0,1.475389957E1,-7.094399929E0
2.982289322E1,-1.154999971E0,1.340989971E1,5.171599865E0
2.984340572E1,1.316200018E0,1.757379913E1,-5.047000051E-1
2.986343437E1,6.879399776E0,1.449689960E1,-4.815399647E0
2.989313072E1,3.498499870E0,4.724999905E0,-2.264600039E0
2.991323958E1,1.202000022E0,-5.419999957E-1,-2.193199873E0
2.995776145E1,2.202999890E-1,-1.016799927E1,-4.432199955E0
2.998301197E1,-3.937199831E0,-1.767569923E1,-5.383800030E0
3.001287760E1,4.705800056E0,-2.646339989E1,-1.091599941E1
3.003327812E1,5.457599640E0,-1.494229984E1,-1.057049942E1
3.006314635E1,-1.044999957E-1,5.387300014E0,-1.841499925E0
3.009311874E1,-6.025799751E0,2.265899849E1,8.375599861E0
3.011313697E1,-2.074499846E0,-2.768999815E0,-4.501800060E0
3.013323906E1,1.033499956E0,-6.094699860E0,-1.032359982E1
3.016296041E1,-3.007400036E0,3.700599909E0,-8.814299583E0
3.019313177E1,5.718100071E0,4.950900078E0,-3.402799845E0
3.022313593E1,-3.314699888E0,-3.261299849E0,-5.567299843E0
3.024319531E1,7.518999577E-1,1.947899938E0,-1.504199982E0
3.026324739E1,4.549099922E0,2.741669846E1,-6.262399673E0
3.029316197E1,1.216169930E1,6.300799847E0,3.060099840E0
3.032333593E1,-1.138700008E0,1.513899922E0,4.171099663E0
3.035316093E1,-7.804800034E0,-6.183999777E-1,8.064299583E0
3.038291770E1,2.477499962E0,-2.937399864E0,8.789599419E0
3.040325729E1,9.151599884E0,-6.359799862E0,2.709199905E0
3.043299583E1,7.568799973E0,-3.402099848E0,4.099400043E0
3.045611197E1,4.000400066E0,-3.540599823E0,5.380300045E0
3.048290052E1,-7.332699776E0,-8.192500114E0,2.194000006E0
3.051308072E1,-8.738699913E0,-8.321700096E0,-4.194900036E0
3.054339010E1,8.486700058E0,1.246809959E1,7.376799583E0
3.057309947E1,-4.087800026E0,1.329369926E1,-8.467499733E0
3.059340416E1,6.688999534E-1,9.032799721E0,8.069600105E0
3.062321510E1,-1.532499909E0,1.850909996E1,-1.507399917E0
3.065310416E1,4.971399784E0,1.403569984E1,-4.008800030E0
3.068323541E1,2.844499826E0,4.903999805E0,-1.592000008E0
3.071297031E1,6.965000033E-1,-2.620599985E0,-2.365999937E0
3.074328697E1,1.215299964E0,-9.429699898E0,-3.390899897E0
3.077298333E1,-3.097499847E0,-1.595580006E1,-4.652100086E0
3.079328593E1,-2.697799921E0,-2.649079895E1,-7.055899620E0
3.082296666E1,3.843099833E0,-1.651519966E1,-1.205029964E1
3.084312812E1,1.915099978E0,-7.231499672E0,-8.962200165E0
3.086317864E1,-3.331399918E0,8.198399544E0,-1.420899987E0
3.089316250E1,-7.967599869E0,1.920109940E1,5.000899792E0
3.092287552E1,-2.885999978E-1,9.628699303E0,-1.227839947E1
3.095261510E1,5.855400085E0,-2.380100012E0,-8.936200142E0
3.097284791E1,3.217199802E0,-7.828399658E0,-4.021299839E0
3.099324166E1,5.419699669E0,-7.184199810E0,-1.053800011E1
3.102290677E1,-8.320999742E-1,-3.428699970E0,2.314899921E0
3.104327343E1,-4.796999931E0,5.184399796E1,-1.712349892E1
3.107291093E1,6.268699646E0,-1.225199938E0,4.343100071E0
3.109310885E1,6.921199799E0,-1.418999910E0,4.627799988E0
3.112332916E1,-7.065499783E0,7.939599991E0,5.401999950E0
3.115308020E1,-4.932799816E0,-7.669000030E-1,4.271100044E0
3.118291718E1,5.427399635E0,-6.067299843E0,5.480899811E0
3.121307083E1,9.478699684E0,-8.237799644E0,4.301099777E0
3.124319635E1,4.386699677E0,-3.426800013E0,6.123600006E0
3.127287708E1,-3.587499857E0,-7.225899696E0,-9.209999442E-2
3.129312447E1,-1.183279991E1,-9.498799324E0,-6.299699783E0
3.131332864E1,-9.494699478E0,-1.071369934E1,-4.617799759E0
3.134336041E1,1.572299957E0,3.218799829E0,5.363999844E0
3.137286250E1,-7.767299652E0,2.355010033E1,-1.310449982E1
3.139308124E1,-1.057099938E0,6.140699863E0,8.172699928E0
3.142288906E1,-6.929000020E-1,1.670499992E1,-9.876999855E-1
3.145436614E1,8.463399887E0,1.419939995E1,-4.519199848E0
3.148287395E1,2.424599886E0,4.860300064E0,-2.010400057E0
3.150316770E1,-4.028999805E-1,-3.551000059E-1,-1.833699942E0
3.153303020E1,-2.153699875E0,-7.872200012E0,-2.053599834E0
3.156295520E1,-4.042299747E0,-1.427629948E1,-3.337299824E0
3.159313645E1,-2.719499826E0,-3.010769844E1,-9.714799881E0
3.162310625E1,4.683899879E0,-1.417089939E1,-1.235039997E1
3.164332291E1,4.081200123E0,-4.361099720E0,-7.586599827E0
3.167288541E1,-2.145099878E0,2.234649849E1,7.577899933E0
3.169321875E1,-7.530399799E0,1.799869919E1,4.307099819E0
3.172312291E1,-1.932999939E-1,1.101859951E1,-5.483299732E0
3.175287812E1,-2.479899883E0,-1.300039959E1,-9.213299751E0
3.177532031E1,1.153900027E0,-1.004029942E1,-4.947000027E0
3.180293593E1,5.681900024E0,3.209999949E-2,-1.157819939E1
3.182310416E1,-2.334999889E-1,2.133099937E1,-4.205800056E0
3.184335260E1,1.247499943E0,2.896589851E1,-3.646399975E0
3.187286145E1,5.241799831E0,2.662899971E0,5.484499931E0
3.189308229E1,5.949299812E0,5.576200008E0,5.949199677E0
3.192295208E1,-5.892299652E0,2.013799906E0,5.616499901E0
3.195592187E1,-2.312700033E0,-4.640899658E0,4.060999870E0
3.198299062E1,3.236399889E0,-9.231900215E0,5.577199936E0
3.201293802E1,6.142399788E0,-5.050799847E0,4.697999954E-1
3.204307916E1,2.612499952E0,-4.829599857E0,5.877500057E0
3.206313020E1,-5.354399681E0,-5.739799976E0,1.136299968E0
3.209309062E1,-1.126699924E1,-8.254499435E0,-6.124000072E0
3.211310312E1,-6.113800049E0,-9.778900146E0,-3.777400017E0
3.214335989E1,7.858999729E0,2.172659874E1,1.756699920E0
3.217287708E1,-6.463599682E0,5.531599998E0,-4.348999977E0
3.219329062E1,1.551699996E0,7.816799641E0,8.348799706E0
3.222321822E1,1.471899986E0,2.312779999E1,-4.282499790E0
3.225309166E1,4.614900112E0,1.190170002E1,-3.082399845E0
3.228311354E1,9.279999882E-2,3.449599981E0,2.137999982E-1
3.231289218E1,-4.574999809E-1,-3.120800018E0,-3.110899925E0
3.233289635E1,-1.393999904E-1,-7.072099686E0,-4.214600086E0
3.236293802E1,-2.333600044E0,-1.318859959E1,-3.463500023E0
3.238319895E1,-2.944999933E0,-1.858119965E1,-6.574999809E0
3.241286041E1,4.974899769E0,-1.958989906E1,-8.281399727E0
3.243290364E1,3.917500019E0,-1.142840004E1,-7.956999779E0
3.245488437E1,-1.295199990E0,-1.096199989E0,-5.777999878E0
3.248293072E1,-7.721099854E0,1.470549965E1,7.662099838E0
3.250297083E1,-4.932499886E0,5.697899818E0,3.119400024E0
3.252314374E1,-3.841599941E0,9.330499649E0,-2.066409874E1
3.254316666E1,3.074899912E0,-9.469999671E-1,-4.943099976E0
3.257293802E1,8.694000244E0,-8.068000078E-1,-7.262399673E0
3.259337864E1,5.883199692E0,-9.190999866E-1,-1.613660049E1
3.262316874E1,5.691999793E-1,1.629599953E1,-2.046799898E0
3.264336614E1,-3.369599819E0,2.218379974E1,-1.314199924E0
3.267318489E1,4.693200111E0,1.490099907E0,4.791899681E0
3.269329166E1,3.435199976E0,4.365399837E0,1.539099932E0
3.272295468E1,-7.481199741E0,9.004999995E-1,6.243000031E0
3.274334375E1,-5.720499992E0,-2.061699867E0,6.630799770E0
3.277293541E1,7.013099670E0,-6.401599884E0,2.177899837E0
3.279309166E1,1.166109943E1,-7.109099865E0,3.976499796E0
3.282290416E1,4.130300045E0,-2.231999874E0,8.228199959E0
3.284316197E1,-1.887499928E0,-3.785399914E0,4.481299877E0
3.287295729E1,-8.741000175E0,-6.975999832E0,-1.414299965E0
3.289310468E1,-6.732399940E0,-9.349299431E0,-4.002099991E0
3.292298750E1,3.247799873E0,6.078299999E0,1.058099985E0
3.295596145E1,-4.274600029E0,1.477139950E1,-1.071420002E1
3.298314426E1,2.570999861E-1,1.341309929E1,6.548399925E0
3.301331614E1,6.247999668E-1,2.017160034E1,-2.997200012E0
3.304344895E1,5.718699932E0,1.309319973E1,-1.854900002E0
3.307310989E1,2.098099947E0,2.970399857E0,-1.067000031E0
3.309327499E1,7.917000055E-1,-1.804199934E0,-2.957399845E0
3.312307187E1,5.601999760E-1,-8.331500053E0,-4.491199970E0
3.314322031E1,-1.572299957E0,-1.301760006E1,-3.927999973E0
3.317290416E1,-1.850600004E0,-2.184939957E1,-7.829799652E0
3.319319426E1,4.174499989E0,-2.423569870E1,-9.211500168E0
3.322314635E1,2.314699888E0,-9.489899635E0,-7.962299824E0
3.324319270E1,-9.907999635E-1,-1.000999928E0,-2.944000006E0
3.326323229E1,-8.223699570E0,1.693070030E1,7.126899719E0
3.329347708E1,-6.658799648E0,1.926000023E1,1.365700006E0
3.332311874E1,4.860799789E0,-1.061049938E1,-1.347690010E1
3.334321718E1,-3.039000034E-1,-1.418869972E1,-3.070600033E0
3.337312031E1,8.437699318E0,-7.922099590E0,-1.439439964E1
3.340315885E1,8.271999955E-1,2.165649986E1,7.541999817E-1
3.342320520E1,-1.101259995E1,4.245240021E1,-8.748899460E0
3.345559479E1,3.538199902E0,-2.204599857E0,3.849099874E0
3.348292499E1,6.298799992E0,6.946899891E0,-5.013999939E-1
3.350293802E1,-3.655499935E0,7.239399910E0,1.315699935E0
3.353288489E1,-5.259500027E0,-2.994400024E0,7.953199863E0
3.355296614E1,4.580999911E-1,-4.956799984E0,5.649499893E0
3.357309895E1,6.663899899E0,-9.225500107E0,4.024499893E0
3.360293541E1,8.189800262E0,-3.524199963E0,-2.400000021E-2
3.363286041E1,1.702299953E0,-3.736299992E0,7.188899994E0
3.365307552E1,-5.919499874E0,-5.998099804E0,2.462399960E0
3.368290052E1,-1.127769947E1,-8.758199692E0,-5.043299675E0
3.370291927E1,-3.583999872E0,-6.522699833E0,-1.351899981E0
3.372313020E1,7.320299625E0,1.322459984E1,2.842099905E0
3.374326041E1,5.867499828E0,3.468700027E1,-1.311909962E1
3.377313281E1,-2.961899996E0,7.618099689E0,6.759599686E0
3.379330624E1,-3.048099995E0,1.446939945E1,5.672999620E-1
3.382311822E1,2.852099895E0,1.478719997E1,-4.219199657E0
3.384323593E1,6.710000038E0,1.261419964E1,-3.491799831E0
3.387291458E1,2.470299959E0,2.560799837E0,-2.115000010E0
3.389317499E1,-1.810999960E-1,-2.349599838E0,-2.538800001E0
3.392291302E1,-2.034100056E0,-8.599800110E0,-2.578299999E0
3.395522395E1,-4.535399914E0,-1.518120003E1,-1.820699930E0
3.398304895E1,2.067999840E0,-2.388349915E1,-6.119599819E0
3.400312031E1,6.595099926E0,-1.831239891E1,-7.458600044E0
3.403323177E1,6.257199764E0,5.954999924E-1,-8.126699448E0
3.406291197E1,-6.824100018E0,2.494050026E1,1.795099974E0
3.408322604E1,-8.707300186E0,4.205599785E0,6.174299717E0
3.411291145E1,-3.636699915E0,3.779199839E0,-2.398429871E1
3.414331979E1,-5.313399792E0,-1.132459927E1,-3.390499830E0
3.417307708E1,1.440819931E1,1.379799962E0,-1.241549969E1
3.419309947E1,5.728299618E0,-5.587999821E-1,-1.068079948E1
3.422311354E1,-4.661099911E0,2.568869972E1,-5.643399715E0
3.424314843E1,-1.499300003E0,8.698200226E0,5.264899731E0
3.427316718E1,4.336599827E0,9.073999524E-1,3.191399813E0
3.429339947E1,7.011699677E0,9.608900070E0,-1.648199916E0
3.432316093E1,-1.004869938E1,2.191999912E0,5.667799950E0
3.434316770E1,-6.627500057E0,-7.547000051E-1,7.286599636E0
3.437289687E1,1.393499970E0,-4.680099964E0,6.448099613E0
3.439329166E1,5.892399788E0,-9.682799339E0,1.068999991E-1
3.442288229E1,5.947499752E0,-6.654199600E0,1.147199988E0
3.445578333E1,1.811599970E0,-4.594299793E0,4.875199795E0
3.448295677E1,-7.018199921E0,-9.396399498E0,-4.045399666E0
3.451321510E1,6.043999791E-1,-4.160999775E0,-9.391999841E-1
3.454321093E1,6.807000041E-1,3.425410080E1,-1.075829983E1
3.457314218E1,-1.141399980E0,6.643099785E0,8.487699509E0
3.460314322E1,6.653999686E-1,1.513689995E1,-1.960599899E0
3.463308437E1,7.331599712E0,1.152359962E1,-2.995199919E0
3.466288541E1,3.173099995E0,6.009199619E0,-3.663100004E0
3.468291666E1,9.978999496E-1,4.679999948E-1,-4.246200085E0
3.471308958E1,5.967999697E-1,-7.490999699E0,-3.912299871E0
3.474322656E1,-1.571499944E0,-1.225749969E1,-2.717000008E0
3.477455364E1,-2.358999997E-1,-1.979789925E1,-3.860899925E0
3.480293437E1,1.983799934E0,-1.594189930E1,-5.849699974E0
3.483314374E1,-1.738499999E0,8.237199783E0,-5.122200012E0
3.486289791E1,-4.681799889E0,7.923399925E0,8.215999603E0
3.488294062E1,1.244999990E-1,-5.842899799E0,-3.913100004E0
3.491288854E1,-7.649799824E0,-4.383100033E0,-1.977890015E1
3.493289635E1,-8.813999891E-1,9.940599442E0,-3.302599907E0
3.495759687E1,9.982699394E0,6.282099724E0,-4.471799850E0
3.498320208E1,-1.241699934E0,1.625800014E0,-9.388099670E0
3.501309687E1,1.310599923E0,2.050679970E1,-1.485199928E0
3.504309739E1,2.635799885E0,1.177199936E1,1.090899944E0
3.507287552E1,7.178400040E0,7.430999756E0,3.426599979E0
3.509324895E1,1.419600010E0,6.133800030E0,2.804999828E0
3.512296302E1,-7.382199764E0,-1.248499990E0,6.305199623E0
3.514310104E1,-3.978999853E0,-3.059099913E0,6.855899811E0
3.516315520E1,3.918799877E0,-7.596499920E0,5.958699703E0
3.519309635E1,8.617400169E0,-7.848299980E0,3.596499920E0
3.522294322E1,5.507199764E0,-5.924200058E0,3.903399944E0
3.524317239E1,-2.201999903E0,-7.918299675E0,1.826699972E0
3.527297604E1,-8.736199379E0,-9.783299446E0,-2.241499901E0
3.529317291E1,-3.281899929E0,-8.074699402E0,-2.674599886E0
3.532290520E1,1.019979954E1,2.421119881E1,-1.244199991E0
3.534338124E1,-4.256599903E0,1.987870026E1,-1.147889996E1
3.537302916E1,-1.361199975E0,1.021099949E1,6.422699928E0
3.539339739E1,-2.115700006E0,1.715049934E1,-5.720999837E-1
3.542320052E1,5.265299797E0,1.437049961E1,-3.571099997E0
3.545212291E1,5.382199764E0,6.763599873E0,-2.837699890E0
3.547291145E1,2.211599827E0,7.489999533E-1,-2.420599937E0
3.549344479E1,-3.732999861E-1,-3.471199989E0,-3.335500002E0
3.552289479E1,7.362999916E-1,-9.898499489E0,-4.653399944E0
3.554333385E1,-9.975000024E-1,-1.295819950E1,-4.129699707E0
3.557291354E1,-2.221099854E0,-2.321629906E1,-4.951399803E0
3.559308281E1,4.761499882E0,-2.289569855E1,-7.168200016E0
3.562292656E1,4.522799969E0,-9.590799332E0,-6.623899937E0
3.564311249E1,1.328999996E0,1.238070011E1,2.292399883E0
3.567307708E1,-1.316939926E1,2.358839989E1,1.624199867E1
3.569310989E1,-1.584299922E0,3.765810013E1,-1.350220013E1
3.572292812E1,4.063999951E-1,-2.039249992E1,-1.154349995E1
3.574319843E1,-2.518999875E-1,-2.361050034E1,-7.727900028E0
3.577307552E1,5.047699928E0,-1.398040009E1,-1.410729980E1
3.579332864E1,-7.765299797E0,5.013699722E1,-4.168099880E0
3.582290572E1,1.334809971E1,1.005679989E1,1.221329975E1
3.584345208E1,6.204199791E0,-4.572000027E0,-1.042999998E-1
3.587298124E1,8.393400192E0,9.073900223E0,-1.578799963E0
3.589319739E1,-4.543999672E0,5.707799911E0,7.076699734E0
3.592319739E1,-2.900099993E0,-4.470799923E0,4.190400124E0
3.595647447E1,3.154099941E0,-9.366299629E0,3.812199831E0
3.598314843E1,4.518799782E0,-5.860399723E0,5.621299744E0
3.601284114E1,4.627699852E0,-1.727999926E0,4.044799805E0
3.603294687E1,2.483599901E0,-8.253899574E0,3.040400028E0
3.606303593E1,-9.339099884E0,-8.519499779E0,-4.492000103E0
3.608318645E1,-1.180469990E1,-1.195869923E1,-5.128099918E0
3.611332187E1,3.876000047E-1,-2.308500051E0,2.872799873E0
3.614319270E1,6.195600033E0,4.580019760E1,-1.216899967E1
3.617312239E1,-4.667500019E0,1.151469994E1,6.467999935E0
3.619328541E1,-2.297299862E0,1.598279953E1,1.174999997E-1
3.622290208E1,4.149699688E0,1.256040001E1,-2.869099855E0
3.624359010E1,8.407199860E0,9.281000137E0,-5.155900002E0
3.627405260E1,3.090399981E0,1.702999949E0,-3.820299864E0
3.630286822E1,-1.231599927E0,-5.940599918E0,-3.684899807E0
3.632297447E1,-1.719299912E0,-1.032520008E1,-4.016299725E0
3.634310260E1,-4.978799820E0,-1.516419983E1,-4.014999866E0
3.637288385E1,-5.159000158E-1,-2.850299835E1,-7.826200008E0
3.639308593E1,3.628499985E0,-1.578539944E1,-1.121210003E1
3.642292552E1,3.488399982E0,-3.358799934E0,-6.245399952E0
3.645519114E1,-4.028399944E0,3.105879974E1,8.322799683E0
3.648290468E1,-1.992599964E0,2.088519859E1,3.824199915E0
3.650299895E1,5.744099617E0,-4.859399796E0,-3.031969833E1
3.652304374E1,-7.962699890E0,-2.719099998E1,-1.397439957E1
3.654316926E1,-1.917699933E0,-2.524209976E1,-3.642899990E0
3.657292760E1,6.239199638E0,-1.834999919E0,-1.014349937E1
3.659308749E1,-3.848599911E0,6.671379852E1,-2.537739944E1
3.662290052E1,3.276899815E0,-1.764799953E0,9.975299835E0
3.664310885E1,3.403100014E0,-2.217499971E0,3.433699846E0
3.667306718E1,3.106799841E0,9.635000229E0,-3.729999959E-1
3.669310572E1,-7.174099922E0,4.124499798E0,5.139800072E0
3.672290208E1,-2.277099848E0,-2.779099941E0,3.455199957E0
3.674313749E1,1.890199900E0,-5.478300095E0,5.142499924E0
3.677304166E1,7.542899609E0,-5.937299728E0,2.892999887E0
3.679315260E1,6.454599857E0,-3.378999949E0,3.765699863E0
3.682292291E1,2.299299955E0,-7.513700008E0,1.174499989E0
3.684337864E1,-5.281399727E0,-9.162799835E0,-3.399399996E0
3.687287708E1,-7.616499901E0,-7.998499870E0,-1.781399965E0
3.689310416E1,-3.370999813E0,2.254499912E0,5.573999882E-1
3.691312083E1,6.730899811E0,2.544739914E1,1.735499978E0
3.695568176E1,-1.348399997E0,1.695859909E1,4.627599716E0
3.698325156E1,-7.015999556E-1,1.939809990E1,-1.832499981E0
3.701308229E1,5.361000061E0,9.931699753E0,-2.521199942E0
3.704318541E1,8.460999727E-1,4.439899921E0,-2.586400032E0
3.707295781E1,-5.383999944E-1,-2.768499851E0,-3.735699892E0
3.709306718E1,2.124999911E-1,-7.778399944E0,-5.300499916E0
3.712292812E1,-1.827899933E0,-1.302629948E1,-7.260200024E0
3.714311614E1,-4.750099659E0,-2.344149971E1,-1.016449928E1
3.717287708E1,8.157799721E0,-1.844709969E1,-1.455649948E1
3.719340520E1,4.651400089E0,-9.917900085E0,-9.668399811E0
3.722324947E1,1.951999962E-1,3.962799788E0,-1.250800014E0
3.725288333E1,-1.135079956E1,2.633949852E1,1.053020000E1
3.728310729E1,4.250099659E0,2.503699875E1,-1.656299973E1
3.730319479E1,4.805099964E0,-1.330690002E1,-1.765810013E1
3.733292187E1,1.730899930E0,-2.359719849E1,-5.445600033E0
3.735318020E1,8.431200027E0,-1.243569946E1,-1.330559921E1
3.738292031E1,-2.081799984E0,5.295169830E1,-3.079599857E0
3.740302395E1,7.322999835E-1,2.747629929E1,7.259899616E0
3.742312812E1,2.253099918E0,-1.894299984E0,4.964299679E0
3.745555572E1,8.752799988E0,4.517699718E0,4.231999815E-1
3.748287916E1,-7.502299786E0,4.619599819E0,7.265100002E0
3.750316302E1,-5.151999950E0,-4.574299812E0,6.271999836E0
3.753309843E1,-7.299000025E-1,-4.266299725E0,2.824399948E0
3.756291718E1,5.463900089E0,-7.978799820E0,4.302099705E0
3.758296562E1,4.773999691E0,-5.554899693E0,5.017600060E0
3.760305520E1,3.459999800E0,-5.678299904E0,5.585099697E0
3.763288697E1,-5.210899830E0,-7.971199989E0,-2.527499914E0
3.765289999E1,-8.783999443E0,-1.062889957E1,-3.916799784E0
3.767291979E1,-6.710899830E0,-9.351099968E0,1.494599938E0
3.769308124E1,1.438099980E0,-4.709099770E0,2.564599991E0
3.772319635E1,1.083319950E1,4.633089828E1,-9.985599518E0
3.774334895E1,-6.423399925E0,1.053919983E1,-6.148099899E0
3.777307604E1,-1.161499977E0,1.494259930E1,1.434299946E0
3.779339531E1,2.939999998E-1,1.408909988E1,-3.027699947E0
3.782339999E1,6.379600048E0,9.765600204E0,-3.431499958E0
3.785287291E1,7.885999680E-1,4.215499878E0,-1.425199986E0
3.787291406E1,-6.297999620E-1,-1.286000013E-1,-2.398999929E0
3.789312031E1,-2.079799891E0,-4.999300003E0,-4.227799892E0
3.792291562E1,-2.031299829E0,-1.064019966E1,-4.615099907E0
3.795830572E1,-3.041699886E0,-2.630609894E1,-7.940599918E0
3.798294010E1,7.438099861E0,-1.715509987E1,-1.009189987E1
3.800323593E1,7.026700020E0,-8.343999863E0,-7.158699989E0
3.803292552E1,-3.223099947E0,2.092119980E1,1.694000006E0
3.806294010E1,-5.351199627E0,1.618169975E1,1.004379940E1
3.808312656E1,6.261600018E0,1.806579971E1,-3.175559998E1
3.811303228E1,-7.204099655E0,-1.854109955E1,-8.540200233E0
3.814315676E1,8.988699913E0,-9.093400002E0,-1.180579948E1
3.817328385E1,5.790499687E0,2.027219963E1,-5.279399872E0
3.819332447E1,-1.075500011E1,4.829489899E1,-1.359309959E1
3.822294687E1,2.726899862E0,-3.146999836E0,4.194900036E0
3.824316614E1,4.789499760E0,2.269999981E-1,8.053999543E-1
3.827412552E1,-4.282899857E0,6.711400032E0,4.519799709E0
3.830315885E1,-2.788699865E0,-4.685999751E-1,3.692899942E0
3.833294791E1,3.304399967E0,-6.560699940E0,3.694499969E0
3.836290260E1,6.494699955E0,-7.288899899E0,6.869699955E0
3.838302708E1,9.424399376E0,-4.897399902E0,6.908699989E0
3.841288697E1,-8.600999713E-1,-5.292799950E0,-1.820599914E0
3.843294270E1,-7.281099796E0,-8.682999611E0,-4.585899830E0
3.845374895E1,-9.254799843E0,-1.012379932E1,-3.266599894E0
3.848318541E1,-5.791000128E-1,-1.166299939E0,5.730000138E-1
3.851293645E1,2.343600035E0,4.083319855E1,-1.252059937E1
3.854334374E1,-2.043099880E0,7.264400005E0,7.028999805E0
3.857307031E1,-4.405999780E-1,1.720359993E1,-2.196599960E0
3.859320260E1,5.291999817E0,1.361339951E1,-4.322199821E0
3.862290260E1,4.355799675E0,6.628799915E0,-2.924499989E0
3.864337395E1,1.385399938E0,6.739999652E-1,-3.883399963E0
3.867295468E1,-6.894999743E-1,-5.955100060E0,-4.737099648E0
3.869315208E1,2.579999864E-1,-9.799599648E0,-4.389800072E0
3.872289843E1,-4.018599987E0,-2.182289886E1,-5.461599827E0
3.874313020E1,1.012099981E0,-2.861949921E1,-7.865900040E0
3.877312916E1,3.876899958E0,-1.277419949E1,-1.056489944E1
3.879332916E1,3.172899961E0,-1.423999906E0,-5.585899830E0
3.881353281E1,-1.188399911E0,2.790589905E1,7.163199902E0
3.884316614E1,-6.587199688E0,3.837599993E0,2.240799904E0
3.887292864E1,2.829999924E-1,-4.051700115E0,-2.042199898E1
3.889306666E1,-2.650699854E0,2.379999869E-2,-1.586769962E1
3.892290520E1,7.174499989E0,1.571200013E0,-7.985000014E-1
3.895249583E1,5.533999801E-1,3.971000016E-1,-1.365660000E1
3.897287239E1,-7.778999805E-1,1.596049976E1,-4.370500088E0
3.899320885E1,1.699599981E0,2.435890007E1,1.593599916E0
3.902292604E1,5.560699940E0,1.499199986E0,4.325799942E0
3.904317760E1,5.330800056E0,3.235899925E0,3.540699959E0
3.907301145E1,-5.853799820E0,7.076999545E-1,3.638199806E0
3.909305885E1,-6.456500053E0,-2.459999919E-1,9.182799339E0
3.912297968E1,3.210899830E0,-5.248199940E0,6.047899723E0
3.914314687E1,7.302099705E0,-8.142799377E0,1.509999990E0
3.917284166E1,8.271399498E0,-4.489200115E0,5.294499874E0
3.919309322E1,3.536499977E0,-4.561100006E0,5.472799778E0
3.922294687E1,-9.352700233E0,-8.225999832E0,-3.341199875E0
3.924312083E1,-1.288359928E1,-9.596799850E0,-5.153199673E0
3.927288854E1,-1.746500015E0,-6.361299992E0,2.639999866E0
3.929339947E1,1.056289959E1,1.698369980E1,6.882599831E0
3.932319114E1,-6.963099957E0,1.982559967E1,-1.247270012E1
3.934334062E1,-2.000200033E0,5.723099709E0,5.228499889E0
3.937319270E1,8.011999726E-1,1.362819958E1,-2.723799944E0
3.940308854E1,7.714699745E0,9.146200180E0,-4.295899868E0
3.942310520E1,3.398499966E0,5.210499763E0,-3.732299805E0
3.945534166E1,-1.131500006E0,-1.695799947E0,-3.181900024E0
3.948292708E1,-3.404299974E0,-9.475799561E0,-3.866499901E0
3.950295260E1,-4.050899982E0,-1.299119949E1,-3.866699934E0
3.953288541E1,-1.762099981E0,-2.421879959E1,-6.114799976E0
3.956316301E1,6.923399925E0,-1.341979980E1,-9.226399422E0
3.959335208E1,2.154999971E0,7.555999756E-1,-2.386499882E0
3.962287395E1,-7.033099651E0,1.696430016E1,9.642099380E0
3.964316041E1,-2.451799870E0,5.334099770E0,2.456599951E0
3.967286301E1,-8.248600006E0,4.196899891E0,-2.463269997E1
3.969315989E1,-6.628499985E0,-4.803599834E0,-2.335599899E0
3.972310468E1,6.029900074E0,-4.303599834E0,-1.103829956E1
3.974342187E1,2.942799807E0,-2.478699923E0,-1.156400013E1
3.977521145E1,-1.575299978E0,3.783179855E1,-7.826399803E0
3.980312239E1,5.728199959E0,3.619299889E0,3.076999903E0
3.983286145E1,7.012899876E0,6.027999878E0,3.897899866E0
3.985303854E1,-1.596799970E0,7.895999908E0,2.312899828E0
3.987310781E1,-6.774299622E0,2.251999855E0,5.929899693E0
3.989312447E1,-2.712699890E0,-1.642899990E0,6.613399982E0
3.992292551E1,6.630699635E0,-9.045199394E0,8.231900215E0
3.995596510E1,3.174199820E0,-1.084000015E1,-1.709999889E-2
3.998292083E1,-2.314399958E0,-5.122099876E0,3.229799986E0
4.000294114E1,-3.409199953E0,-6.199899673E0,2.879099846E0
4.003288749E1,-6.375899792E0,-8.984999657E0,-2.210000008E-1
4.006293124E1,-6.528999805E-1,-6.421299934E0,-5.794999599E-1
4.008308645E1,4.727600098E0,1.465600014E0,1.115100026E0
4.011293333E1,-5.258699894E0,3.854990005E1,-1.560599995E1
4.014330676E1,8.547999859E-1,6.129699707E0,6.108399868E0
4.016337551E1,4.576999843E-1,1.419259930E1,1.040799975E0
4.019312083E1,5.789899826E0,1.006139946E1,-4.548699856E0
4.022294114E1,2.617199898E0,3.862799883E0,-3.573599815E0
4.024312291E1,-3.671999872E-1,-1.141099930E0,-3.800400019E0
4.027317395E1,-1.424799919E0,-7.705799580E0,-4.221499920E0
4.030294166E1,-1.972599983E0,-1.397809982E1,-1.118600011E0
4.032338801E1,-3.118000031E0,-2.284059906E1,-2.698400021E0
4.034339531E1,1.921899915E0,-2.228170013E1,-8.657699585E0
4.037291978E1,3.991999865E0,-6.792599678E0,-7.621999741E0
4.039309322E1,9.035999775E-1,1.308129978E1,-2.781899929E0
4.042329010E1,-5.076999664E0,1.034009933E1,7.018499851E0
4.045667135E1,-8.082000017E-1,-4.905299664E0,-2.115429878E1
4.048290624E1,-2.344799995E0,3.267499924E0,-6.129600048E0
4.050292395E1,6.991499901E0,4.866899967E0,-6.169699669E0
4.052312604E1,5.500999928E0,3.027699947E0,-1.268939972E1
4.054319739E1,-1.724999905E0,4.871900082E0,-7.681200027E0
4.057290520E1,2.834399939E0,2.228209877E1,-2.076200008E0
4.059330937E1,3.475899935E0,1.258169937E1,1.680199981E0
4.062336562E1,7.413300037E0,2.573999882E0,2.449399948E0
4.065286874E1,-1.755499959E0,3.762699842E0,1.859799981E0
4.067305260E1,-4.928699970E0,2.220599890E0,4.562299728E0
4.069313645E1,-2.372299910E0,-8.197999597E-1,7.185899734E0
4.072314583E1,1.316599965E0,-8.047699928E0,5.727799892E0
4.074325208E1,2.750200033E0,-1.010289955E1,3.546599865E0
4.077377239E1,5.116899967E0,-5.160799980E0,3.520299911E0
4.080321562E1,-2.616299868E0,-3.517099857E0,2.798199892E0
4.083290885E1,-9.594299316E0,-1.049699974E1,-5.059599876E0
4.085309791E1,-6.030600071E0,-1.052740002E1,5.198999643E-1
4.088295989E1,4.984600067E0,5.991499901E0,-6.448000073E-1
4.090296926E1,5.234799862E0,5.001720047E1,-8.697999954E0
4.092315104E1,-6.699499607E0,8.320400238E0,-5.573599815E0
4.095572395E1,-1.031299949E0,1.388179970E1,8.578999639E-1
4.098289322E1,4.544799805E0,1.208360004E1,-3.338500023E0
4.100291458E1,7.938499928E0,7.770999908E0,-3.634999990E0
4.102294322E1,4.124099731E0,3.600999832E0,-3.367599964E0
4.104322916E1,7.942000031E-1,-6.647999883E-1,-3.886899948E0
4.107288697E1,-4.425999820E-1,-6.452300072E0,-3.770599842E0
4.109315416E1,-1.437899947E0,-1.012360001E1,-2.898599863E0
4.112290676E1,-5.355000019E0,-1.889939880E1,-2.589499950E0
4.114311041E1,5.712999701E-1,-2.299860001E1,-8.422299385E0
4.117295728E1,3.981499910E0,-1.211039925E1,-8.057799339E0
4.119332031E1,3.141299963E0,6.563000083E-1,-1.957499981E0
4.122290729E1,-4.496299744E0,1.669560051E1,1.209630013E1
4.124333385E1,-3.349999905E0,4.173699856E0,5.454799652E0
4.127310156E1,-3.899199963E0,6.501999855E0,-2.371069908E1
4.129313072E1,-3.178999901E0,-9.949699402E0,-8.140699387E0
4.132291926E1,3.203899860E0,-6.462399960E0,-9.293199539E0
4.134311666E1,-5.230999589E-1,-3.244899988E0,-8.042399406E0
4.136321510E1,-9.846199989E0,2.997319984E1,-7.558300018E0
4.139314635E1,8.304399490E0,1.183269978E1,3.989499807E0
4.142302656E1,9.827699661E0,2.092399836E0,3.439999819E-1
4.145484947E1,-1.508700013E0,5.752199650E0,3.047399998E0
4.148314114E1,-4.605199814E0,-3.664999902E-1,7.611399651E0
4.151286197E1,2.137799978E0,-3.915499926E0,5.399899960E0
4.153299791E1,4.738100052E0,-6.710899830E0,2.233500004E0
4.156299166E1,6.164999962E0,-6.318199635E0,1.857699990E0
4.159308333E1,6.918499947E0,-4.288499832E0,2.835000038E0
4.162345312E1,-6.962499619E0,-9.686299324E0,-2.552999854E-1
4.165284270E1,-8.748199463E0,-7.682299614E0,-4.631000042E0
4.167301666E1,-3.548099995E0,-2.111399889E0,-2.255100012E0
4.169316354E1,6.083999634E0,2.098410034E1,-1.869999990E-2
4.172291614E1,-5.898900032E0,1.221350002E1,-5.368099689E0
4.174316614E1,-6.125000119E-1,1.030939960E1,1.068499923E0
4.177497864E1,1.741199970E0,1.069199944E1,-7.766999602E-1
4.180291718E1,5.929100037E0,8.047900200E0,-3.404399872E0
4.182323854E1,1.220600009E0,4.612400055E0,-8.195999861E-1
4.185287447E1,-9.273999929E-1,-2.023699999E0,-2.024899960E0
4.187310364E1,-1.480000019E0,-5.004499912E0,-2.947599888E0
4.190337708E1,-8.678999543E-1,-8.324500084E0,-4.229799747E0
4.193289114E1,-3.331499815E0,-1.399749947E1,-3.795499802E0
4.195308385E1,-1.576000005E-1,-1.937959862E1,-6.150099754E0
4.198289895E1,4.742099762E0,-1.011619949E1,-7.799799919E0
4.200318906E1,2.735100031E0,1.319999933E0,-5.808599949E0
4.203290416E1,-6.539499760E0,1.879509926E1,1.325780010E1
4.206320051E1,-2.354999930E-1,5.107999802E0,-2.653249931E1
4.209315520E1,-6.344099998E0,-9.827499390E0,-4.701900005E0
4.212310260E1,7.145400047E0,-2.016000003E-1,-1.042430019E1
4.214329322E1,5.680500031E0,7.876199722E0,-1.318919945E1
4.217288645E1,2.802000046E-1,2.298550034E1,-1.260399938E0
4.219331041E1,3.429999828E0,7.492300034E0,4.770400047E0
4.222293072E1,6.610300064E0,1.602800012E0,2.880100012E0
4.224311926E1,6.138000011E0,6.598899841E0,1.379999984E-2
4.227290989E1,-4.676599979E0,1.838599920E0,4.207900047E0
4.229317135E1,-3.134199858E0,-4.700999856E-1,6.289799690E0
4.232294583E1,3.740000010E0,-5.976199627E0,5.823599815E0
4.234311718E1,6.765899658E0,-7.267199993E0,2.972999811E0
4.237294062E1,4.948400021E0,-4.794799805E0,1.369599938E0
4.239306354E1,2.320499897E0,-5.301699638E0,2.006700039E0
4.242316301E1,-9.974599838E0,-7.251299858E0,-1.280499935E0
4.245224166E1,-6.723799706E0,-2.443300009E0,-3.775799990E0
4.247295364E1,3.350600004E0,1.286829948E1,5.202999711E-1
4.249308801E1,1.602100015E0,2.483370018E1,-8.600999832E0
4.252317708E1,1.439999975E-2,9.385600090E0,3.967499971E0
4.255306979E1,3.549999744E-2,1.461800003E1,-1.192799926E0
4.258320260E1,7.695600033E0,1.090009975E1,-3.730999947E0
4.261288020E1,3.238799810E0,4.991600037E0,-3.906399965E0
4.263294895E1,1.990599990E0,7.439000010E-1,-4.114500046E0
4.266289010E1,-1.204900026E0,-6.653100014E0,-4.082799911E0
4.268335104E1,-7.398999929E-1,-9.535799980E0,-4.632400036E0
4.271295989E1,-4.875099659E0,-1.561879921E1,-4.868000031E0
4.274316510E1,2.304399967E0,-1.937769890E1,-7.521100044E0
4.277288906E1,4.315299988E0,-8.314999580E0,-6.109600067E0
4.279333020E1,6.818000078E-1,7.262899876E0,-2.025899887E0
4.282316874E1,-8.046199799E0,1.815419960E1,1.701109886E1
4.284386510E1,6.961599827E0,1.756760025E1,-2.901619911E1
4.287287968E1,-1.410499930E0,-1.463289928E1,-1.019789982E1
4.289312239E1,-7.635999918E-1,-1.398269939E1,-3.948199987E0
4.292313697E1,2.218499899E0,-3.776999950E0,-1.177989960E1
4.295585833E1,-1.357259941E1,4.680009842E1,-1.125899982E1
4.298316822E1,6.249099731E0,1.366899967E0,3.659999847E0
4.301306510E1,8.474599838E0,2.731999874E0,4.345999956E-1
4.303317708E1,2.241600037E0,5.578299999E0,-3.730999827E-1
4.306286041E1,-5.624499798E0,-2.654999793E-1,8.535399437E0
4.308299010E1,-1.791999936E0,-7.590000033E-1,5.705599785E0
4.311297083E1,5.848299980E0,-5.947999954E0,3.329499960E0
4.314311822E1,5.295399666E0,-5.430299759E0,-1.742499948E0
4.317284374E1,-3.948299885E0,-5.179699898E0,2.982300043E0
4.319331822E1,-9.676199913E0,-8.168399811E0,-9.778999686E-1
4.322290624E1,-7.250799656E0,-6.090199947E0,-1.652699947E0
4.324321926E1,1.030000020E-2,8.843999505E-1,-4.032199860E0
4.327402656E1,1.167899966E0,2.750009918E1,-1.013409996E1
4.330292760E1,-1.529999916E-2,8.002300262E0,6.059199810E0
4.332298020E1,-4.927599907E0,1.176819992E1,-1.082499981E0
4.334336926E1,5.130099773E0,1.587729931E1,-3.395999908E0
4.337306197E1,5.648399830E0,8.280699730E0,-2.288800001E0
4.339311197E1,7.708999515E-1,4.121599674E0,-2.178299904E0
4.342293854E1,-4.835999906E-1,-3.298799992E0,-4.796199799E0
4.346007239E1,-4.151999950E-1,-9.370299339E0,-3.463699818E0
4.348294270E1,-2.789399862E0,-1.328279972E1,-4.015599728E0
4.350316301E1,-1.149600029E0,-1.815519905E1,-6.105599880E0
4.353342030E1,4.070199966E0,-1.241989994E1,-6.917399883E0
4.356294999E1,4.034899712E0,2.691200018E0,-6.083299637E0
4.358295624E1,5.216000080E-1,1.444259930E1,3.983299971E0
4.360302395E1,-6.319099903E0,4.913799763E0,7.862999916E0
4.362311770E1,-4.464600086E0,2.007200003E0,-1.118050003E1
4.364317812E1,-6.102799892E0,3.235199928E0,-1.302950001E1
4.367286978E1,5.919699669E0,-5.450999737E-1,-2.705699921E0
4.369317499E1,8.683499336E0,5.073899746E0,-1.159789944E1
4.372295260E1,2.481999993E-1,-1.528699994E0,-5.032499790E0
4.374311770E1,4.637999833E-1,2.202099991E1,-3.296999931E-1
4.377316614E1,-3.201999903E0,1.496679974E1,5.298599720E0
4.379316874E1,1.047399998E0,2.852099895E0,2.671599865E0
4.382294687E1,-1.800999939E-1,1.688099980E0,3.841599941E0
4.384335624E1,-3.227099895E0,-1.245899916E0,5.701099873E0
4.387289478E1,8.064000010E-1,-5.724899769E0,4.445799828E0
4.389310833E1,7.667299747E0,-1.120639992E1,2.337599993E0
4.392299947E1,5.468599796E0,-2.338899851E0,-1.283399940E0
4.395312812E1,2.332999945E0,-2.757900000E0,8.969999850E-2
4.398295416E1,-5.392399788E0,-1.196759987E1,-2.865999937E0
4.400310416E1,-3.762300014E0,-9.918700218E0,-2.602799892E0
4.402314374E1,-3.018800020E0,1.278599977E0,-2.181900024E0
4.404314635E1,-2.533999979E-1,2.097150040E1,-5.931000113E-1
4.406321145E1,-3.334999979E-1,1.294239998E1,-4.139999747E-1
4.409340468E1,-5.423399925E0,1.219040012E1,2.383699894E0
4.412318281E1,-4.807399750E0,1.200059986E1,-7.739999890E-2
4.414326562E1,5.039599895E0,8.448900223E0,7.044000030E-1
4.417300103E1,4.405600071E0,3.735799789E0,-1.277599931E0
4.419311926E1,2.682299852E0,-2.034699917E0,-4.184799671E0
4.422289791E1,2.584300041E0,-7.042599678E0,-3.067799807E0
4.424317343E1,-5.163999796E-1,-9.141300201E0,-4.150799751E0
4.427303280E1,-2.724099874E0,-1.182599926E1,-5.242199898E0
4.429311145E1,1.161899924E0,-1.207699966E1,-6.786799908E0
4.432318020E1,3.281499863E0,-7.717899799E0,-4.081500053E0
4.434331093E1,2.384999990E0,1.731899977E0,-2.165099859E0
4.437285780E1,-1.654899955E0,2.213399887E0,4.798299789E0
4.439340416E1,3.390000015E-2,6.128799915E0,-6.764599800E0
4.442291301E1,1.098299980E0,1.382699966E0,-1.243419933E1
4.445497656E1,-2.606799841E0,3.921999931E0,-3.652400017E0
4.448292812E1,-1.562899947E0,5.842999935E0,-7.508599758E0
4.450309426E1,-1.963000000E-1,1.350609970E1,-1.090999961E0
4.452313749E1,1.440500021E0,9.992400169E0,-2.532999814E-1
4.454366041E1,2.835599899E0,6.606799603E0,1.757299900E0
4.457285312E1,2.984099865E0,6.301399708E0,2.970000029E0
4.459319791E1,-4.524999857E-1,2.240599871E0,4.234099865E0
4.462291978E1,-1.936800003E0,-1.661499977E0,5.663799763E0
4.464309843E1,1.419999897E-1,-2.884199858E0,5.516499996E0
4.467296093E1,7.372799873E0,-7.370199680E0,-2.196699858E0
4.469308645E1,5.883800030E0,-4.302899837E0,-1.982000023E-1
4.472293333E1,-2.492899895E0,-8.638899803E0,9.021999836E-1
4.474312395E1,-7.893399715E0,-1.166699982E1,8.414999843E-1
4.477311874E1,-3.077399969E0,-6.411999702E0,-3.548399925E0
4.480327812E1,9.695000052E-1,1.517449951E1,-2.187099934E0
4.483307968E1,4.175999761E-1,9.210299492E0,-2.540699959E0
4.486290416E1,-6.051199913E0,1.375199986E1,5.093400002E0
4.488318176E1,-3.610499859E0,1.554449940E1,1.489300013E0
4.491328020E1,2.768299818E0,1.220160007E1,3.360999823E-1
4.496173906E1,2.568099976E0,-4.785999954E-1,-3.728499889E0
4.498295624E1,2.604399920E0,-5.307600021E0,-6.348799706E0
4.501292030E1,1.679099917E0,-1.095749950E1,-3.977699995E0
4.504311249E1,-3.955000043E-1,-1.653789902E1,-4.413599968E0
4.506312499E1,5.865200043E0,-1.603139877E1,-4.500499725E0
4.509309947E1,4.326499939E0,-7.658499718E0,-5.650899887E0
4.512288801E1,-1.822399974E0,1.500399947E0,-2.491600037E0
4.514315156E1,-6.212599754E0,4.440499783E0,2.083699942E0
4.517289583E1,-2.333400011E0,9.257800102E0,-7.983099937E0
4.519313645E1,-3.349999785E-1,-4.395999908E-1,-1.103789997E1
4.522297968E1,1.401999891E-1,5.537999868E-1,-1.516299963E0
4.524337603E1,2.567999959E-1,6.322299957E0,-1.410319996E1
4.527319843E1,-2.835799932E0,1.213679981E1,-3.227099895E0
4.530313541E1,1.267499924E0,1.255739975E1,2.113699913E0
4.533310416E1,1.659999937E-1,2.483599901E0,4.772500038E0
4.536291197E1,1.167400002E0,5.312999725E0,3.765299797E0
4.538320051E1,-1.009199977E0,2.321899891E0,4.753399849E0
4.541287864E1,1.318799973E0,-4.383999825E0,5.063099861E0
4.543289374E1,3.689599991E0,-7.808599949E0,4.976399899E0
4.545527656E1,5.851399899E0,-7.989599705E0,8.526999950E-1
4.548289218E1,6.689699650E0,-3.310499907E0,2.100100040E0
4.550292760E1,2.208199978E0,-4.529399872E0,1.777499914E0
4.552300260E1,-4.178999901E0,-8.715099335E0,3.960999846E-1
4.554314322E1,-7.506099701E0,-1.186730003E1,-3.357399940E0
4.557286510E1,-4.721299648E0,-3.247399807E0,-1.901299953E0
4.559332603E1,-1.951200008E0,1.381979942E1,-6.022999883E-1
4.562318020E1,1.102299929E0,1.018909931E1,9.211999774E-1
4.564332603E1,-4.398999691E0,1.522509956E1,4.156199932E0
4.567308697E1,-3.603600025E0,1.532829952E1,2.119999938E-2
4.569308906E1,7.444999814E-1,1.381049919E1,-2.211999893E-1
4.572291301E1,5.372999907E-1,6.778299809E0,4.875999987E-1
4.574336614E1,2.038800001E0,-6.250000000E-1,-1.281599998E0
4.577284999E1,2.740200043E0,-8.926699638E0,-3.077399969E0
4.579308645E1,2.184200048E0,-1.208430004E1,-3.789699793E0
4.582312395E1,-8.181999922E-1,-1.436389923E1,-7.785299778E0
4.584321718E1,2.220000029E0,-1.751129913E1,-8.385499954E0
4.587316197E1,5.169300079E0,-7.386299610E0,-8.859499931E0
4.590333801E1,-1.093500018E0,-2.951799870E0,-2.945499897E0
4.593286197E1,-8.106299400E0,1.420090008E1,1.003020000E1
4.595495885E1,-8.724200249E0,8.117599487E0,3.636499882E0
4.598297864E1,3.428599834E0,-8.701700211E0,-1.296070004E1
4.600300728E1,1.446099997E0,-1.447119999E1,-6.049099922E0
4.602314635E1,8.013199806E0,-2.169399977E0,-7.701599598E0
4.604339010E1,6.761799812E0,5.430699825E0,-1.326139927E1
4.607308124E1,-8.484899521E0,2.924090004E1,-6.094299793E0
4.610310676E1,-3.305899858E0,2.295599937E0,6.515999794E0
4.613315260E1,2.651000023E-1,1.172799945E0,1.390200019E0
4.616288958E1,-1.739699960E0,4.888799667E0,2.674299955E0
4.618318593E1,-2.800899982E0,-5.841999650E-1,7.161200047E0
4.621285937E1,-6.074999571E-1,-5.072599888E0,5.675199986E0
4.623288176E1,3.655099869E0,-8.108200073E0,6.827999949E-1
4.625289374E1,5.201600075E0,-8.110699654E0,-4.634999931E-1
4.627290312E1,5.749799728E0,-3.514699936E0,1.565899968E0
4.629322603E1,2.576599836E0,-3.921199799E0,4.309499741E0
4.632303281E1,-6.572099686E0,-1.169349957E1,6.078999639E-1
4.634335989E1,-5.057699680E0,-9.367499352E0,-4.254099846E0
4.637286301E1,3.838699818E0,1.220939922E1,6.878999710E0
4.639307656E1,-2.664599895E0,3.583869934E1,-1.179759979E1
4.642288853E1,-3.143499851E0,8.907400131E0,4.744199753E0
4.645493697E1,-1.702199936E0,1.212160015E1,8.859999478E-2
4.648305416E1,4.321399689E0,1.029939938E1,-2.883899927E0
4.651291197E1,3.641999960E0,5.137499809E0,-3.720499992E0
4.653320208E1,9.243999720E-1,-1.182999969E0,-3.624799967E0
4.656294270E1,-6.268999577E-1,-8.103899956E0,-2.762199879E0
4.659318124E1,-2.680899858E0,-1.313329983E1,-1.731299996E0
4.662291145E1,-7.851999998E-1,-2.344050026E1,-6.255899906E0
4.664340520E1,4.961699963E0,-1.870129967E1,-9.171599388E0
4.667288280E1,4.866300106E0,-5.355299950E0,-7.677700043E0
4.669311718E1,-9.149999619E-1,1.474499989E1,1.327700019E0
4.672325051E1,-7.109499931E0,1.104689980E1,2.700099945E0
4.674337760E1,-2.133399963E0,1.012809944E1,-5.942899704E0
4.677363541E1,-3.438599825E0,-1.262939930E1,-4.353399754E0
4.680321197E1,3.909699917E0,-7.450999737E0,-2.857199907E0
4.683285989E1,1.798900008E0,-5.205999613E-1,-1.231619930E1
4.685292291E1,-8.618000031E0,2.367969894E1,-3.085000038E0
4.688317239E1,9.515999556E-1,1.600309944E1,3.927399874E0
4.691289010E1,4.912899971E0,5.954999924E-1,1.913800001E0
4.693298228E1,3.646399975E0,5.754799843E0,1.172999963E-1
4.695401353E1,-4.559000015E0,3.478499889E0,2.043499947E0
4.698289530E1,-4.975699902E0,-3.337199926E0,8.509200096E0
4.701292656E1,1.659500003E0,-5.822000027E0,4.948699951E0
4.703323176E1,6.986399651E0,-9.178899765E0,-1.365700006E0
4.706304062E1,5.109999657E0,-4.732399940E0,2.471400023E0
4.709313853E1,-3.964299917E0,-4.178400040E0,4.003900051E0
4.712297603E1,-8.203299522E0,-9.373199463E0,-4.019199848E0
4.714334322E1,-3.554999828E0,-3.929799795E0,-3.411799908E0
4.717287499E1,9.914999604E-1,2.422589874E1,-5.693599701E0
4.719310989E1,-2.569599867E0,6.287499905E0,8.865999579E-1
4.722292499E1,-1.988999963E0,1.688699913E1,9.569000006E-1
4.724314374E1,-1.959800005E0,1.881099892E1,-4.006700039E0
4.727292864E1,3.312299967E0,1.199300003E1,-1.830599904E0
4.729333801E1,3.921799898E0,7.733199596E0,2.665999830E-1
4.732291458E1,-4.305999875E-1,-1.706999987E-1,-1.458099961E0
4.734323280E1,-1.404999942E-1,-3.298799992E0,-3.896600008E0
4.736338593E1,4.179999828E-1,-7.600800037E0,-4.316999912E0
4.739314687E1,-3.070799828E0,-1.403559971E1,-5.078399658E0
4.742292135E1,2.533200026E0,-2.190679932E1,-7.514599800E0
4.745393853E1,6.921299934E0,-1.228959942E1,-7.238399982E0
4.748295572E1,-2.468499899E0,3.388299942E0,-8.169999719E-1
4.751288072E1,-7.140100002E0,1.687979889E1,4.197400093E0
4.753305885E1,-5.728699684E0,7.728699684E0,-3.156199932E0
4.755313020E1,-4.746799946E0,8.110400200E0,-2.305270004E1
4.758305156E1,-6.470999718E-1,-1.424989986E1,-4.960799694E0
4.761295885E1,8.440500259E0,-3.749699831E0,-1.397589970E1
4.764348333E1,-4.752399921E0,1.852630043E1,-3.701699972E0
4.767287864E1,-3.339999914E-1,2.053520012E1,8.632599831E0
4.769337447E1,3.829399824E0,1.087899923E0,3.265300035E0
4.772289635E1,4.803599834E0,6.873099804E0,1.621599913E0
4.774314947E1,-4.350899696E0,5.917099953E0,2.118900061E0
4.777286301E1,-3.581399918E0,-4.348599911E0,6.288199902E0
4.779308281E1,5.150000006E-2,-5.830100060E0,4.064700127E0
4.782316770E1,7.719999790E0,-9.715799332E0,4.127799988E0
4.784336197E1,6.420399666E0,-5.672599792E0,7.773999572E-1
4.787288280E1,1.526399970E0,-3.345099926E0,2.926100016E0
4.789315780E1,-6.372200012E0,-5.792200089E0,3.102799892E0
4.792313437E1,-1.062209988E1,-1.023199940E1,-6.026899815E0
4.795802603E1,-2.161799908E0,1.810699940E0,1.007099986E0
4.798307031E1,1.665999889E-1,2.680099869E1,-1.021080017E1
4.801309843E1,-1.179600000E0,1.585759926E1,6.983799934E0
4.804338228E1,-2.110599995E0,1.725149918E1,-1.360700011E0
4.807310103E1,3.477299929E0,1.013070011E1,-3.987999856E-1
4.809315989E1,4.005599976E0,6.090699673E0,-7.130999565E-1
4.812291822E1,-8.345999718E-1,-2.060499907E0,-2.797399998E0
4.814337031E1,1.477999985E-1,-5.735799789E0,-5.062299728E0
4.817290156E1,3.769999743E-2,-1.047749996E1,-6.277199745E0
4.819309062E1,-3.442099810E0,-1.397209930E1,-7.236399651E0
4.822304062E1,4.211699963E0,-2.624399948E1,-1.138029957E1
4.824312291E1,6.480999947E0,-1.185279942E1,-9.880299568E0
4.827292812E1,-6.135999560E-1,6.146999598E-1,2.637999952E-1
4.829339426E1,-1.161209965E1,2.209779930E1,4.802999973E0
4.832324114E1,-1.599399924E0,7.259399891E0,-3.867699862E0
4.835294374E1,1.677299976E0,-1.365590000E1,-9.954199791E0
4.837295572E1,2.424700022E0,-4.672800064E0,1.733899951E0
4.839318489E1,7.544399738E0,8.608999848E-1,-9.554800034E0
4.842296614E1,6.473999619E-1,1.290099978E0,-5.586099625E0
4.845944010E1,-4.645100117E0,1.476729965E1,2.522399902E0
4.848325520E1,-5.106999874E-1,3.601899862E0,4.567699909E0
4.851311562E1,1.078699946E0,9.176999927E-1,3.027999997E-1
4.854340989E1,-7.391199589E0,1.369599938E0,4.738399982E0
4.857308906E1,-4.760200024E0,-1.033599973E0,4.714200020E0
4.859313124E1,1.719399929E0,-7.251299858E0,5.263999701E-1
4.862291770E1,3.674099922E0,-1.175939941E1,3.324699879E0
4.864319478E1,-8.657000065E-1,-7.410199642E0,5.654299736E0
4.867291301E1,-4.987499714E0,-5.634099960E0,-3.115799904E0
4.869329947E1,-2.641899824E0,-1.353899956E0,-4.106400013E0
4.872304531E1,2.263200045E0,2.618169975E1,-8.489799500E0
4.874322291E1,-4.081900120E0,8.365900040E0,1.149600029E0
4.877289270E1,-4.560899734E0,1.473399925E1,5.620899677E0
4.879335520E1,8.503999710E-1,1.439219952E1,4.730999768E-1
4.882294583E1,3.136499882E0,8.207699776E0,-6.427999735E-1
4.884320051E1,6.329999566E-1,2.822099924E0,-2.305199862E0
4.887288593E1,-1.567299962E0,-3.466899872E0,-1.974599957E0
4.889316093E1,-3.517999947E-1,-5.824399948E0,-4.948100090E0
4.892292551E1,-2.468999922E-1,-9.189399719E0,-4.619800091E0
4.895554530E1,1.136399984E0,-1.429640007E1,-4.653800011E0
4.898296249E1,3.882999897E0,-1.340989971E1,-5.119800091E0
4.901289843E1,7.601000071E-1,-2.916399956E0,-2.753299952E0
4.903291718E1,-2.719799995E0,6.264599800E0,3.019999862E-1
4.905292708E1,-6.112099648E0,2.602499962E0,3.650300026E0
4.907312187E1,5.528999567E-1,1.480519962E1,-8.483999968E-1
4.910293593E1,-2.034699917E0,1.171999931E0,-8.311399460E0
4.913289947E1,-1.085649967E1,5.823299885E0,3.063499928E0
4.915309791E1,3.524899960E0,-2.418599844E0,-1.013280010E1
4.917309843E1,2.747499943E0,7.614500046E0,-3.068699837E0
4.919332551E1,1.425640011E1,1.414709949E1,3.154199839E0
4.922323593E1,3.420199871E0,3.628399849E0,4.250599861E0
4.925290624E1,-4.747999907E-1,-1.232599974E0,-1.007699966E0
4.927351978E1,-3.092700005E0,-4.347300053E0,3.742699862E0
4.930310572E1,-4.584199905E0,-3.230199814E0,4.032799721E0
4.932346770E1,-3.369599819E0,-6.631099701E0,1.742100000E0
4.935317968E1,-3.923499823E0,-9.809999466E0,-1.785999984E-1
4.938295833E1,-6.225299835E0,-8.624899864E0,1.697499990E0
4.941290416E1,-2.541699886E0,-5.866899967E0,-1.548599958E0
4.945549426E1,1.613699913E0,2.452800035E0,-3.040999889E0
4.948294947E1,5.763499737E0,3.089349937E1,-8.183400154E0
4.950297030E1,-9.659999609E-2,9.171299934E0,5.272099972E0
4.953322812E1,9.923999906E-1,1.226849937E1,4.793799877E0
4.956312968E1,7.340699673E0,9.235699654E0,-1.037500024E0
4.959313958E1,3.792699814E0,4.417699814E0,-2.582900047E0
4.962294374E1,1.567199945E0,-2.781100035E0,-2.283699989E0
4.964324947E1,1.832000017E-1,-7.362599850E0,-2.793399811E0
4.967291353E1,-2.284800053E0,-1.088369942E1,-3.330399990E0
4.969316458E1,-2.831699848E0,-1.269119930E1,-5.145599842E0
4.972299010E1,1.761699915E0,-1.423089981E1,-8.607999802E0
4.974320937E1,8.845999837E-1,-1.059420013E1,-6.862400055E0
4.977311093E1,-3.355700016E0,4.253600121E0,-1.991299987E0
4.979320260E1,-3.450899839E0,2.336809921E1,4.300099850E0
4.982315051E1,5.581199646E0,2.894889832E1,-1.947099876E1
4.984338541E1,4.785999954E-1,-1.217679977E1,-1.004799938E1
4.987290260E1,-1.441999912E0,-1.702239990E1,-2.534099817E0
4.989341041E1,4.195499897E0,-7.943799973E0,-1.440679932E1
4.992296093E1,4.919199944E0,2.148959923E1,1.770999908E0
4.995894739E1,5.257899761E0,1.994239998E1,4.468899727E0
4.998295155E1,6.572700024E0,-1.332499981E0,1.909399986E0
5.000298489E1,4.637899876E0,2.462499857E0,-8.539999723E-1
5.003306458E1,-6.486899853E0,2.087000012E-1,4.107500076E0
5.006302447E1,-4.365900040E0,-3.612200022E0,3.926899910E0
5.009317916E1,2.921099901E0,-7.558599949E0,-1.974499941E0
5.012293801E1,3.440299988E0,-6.541499615E0,-3.086499929E0
5.014319322E1,-1.207000017E0,-3.705199957E0,2.444999933E0
5.017295260E1,-9.239999771E0,-7.813399792E0,1.964499950E0
5.019329062E1,-8.160900116E0,-6.466199875E0,-2.957599878E0
5.022291145E1,5.192499638E0,6.221600056E0,2.430999875E-1
5.024315780E1,4.574899673E0,2.646549988E1,-7.143799782E0
5.026317395E1,-1.589599967E0,1.359700012E1,2.549099922E0
5.029338020E1,6.275999546E-1,1.486019993E1,5.078999996E-1
5.032317447E1,4.509500027E0,9.404699326E0,-2.440099955E0
5.035346093E1,4.909199715E0,5.363999844E0,-6.976999640E-1
5.038292603E1,-5.151000023E-1,4.508000016E-1,-1.642799973E0
5.040321510E1,-2.748600006E0,-3.624899864E0,-2.399499893E0
5.043289426E1,-3.141999960E0,-8.532799721E0,-3.258699894E0
5.045334270E1,-4.346099854E0,-1.178329945E1,-4.179999828E0
5.048292239E1,-1.039700031E0,-1.949489975E1,-8.230099678E0
5.050301822E1,4.552400112E0,-1.751389885E1,-9.532199860E0
5.053289947E1,2.181400061E0,-4.339099884E0,-9.075900078E0
5.056294010E1,-2.279999971E0,2.821859932E1,7.640599728E0
5.059343749E1,-5.454299927E0,2.099530029E1,-8.143999577E-1
5.062297187E1,-2.355399847E0,-1.569429970E1,-8.064499855E0
5.064309322E1,-6.434799671E0,-2.033189964E1,-5.565999985E0
5.067331562E1,7.190799713E0,-6.504899979E0,-1.433229923E1
5.070316458E1,5.417599678E0,4.021469879E1,-3.863499880E0
5.072319270E1,-2.477299929E0,3.543209839E1,-2.860100031E0
5.075302864E1,2.704799891E0,-2.878399849E0,1.352800012E0
5.077324322E1,3.612999916E0,2.422199965E0,-2.852999866E-1
5.079330051E1,8.148999810E-1,9.209599495E0,-2.615799904E0
5.082316666E1,-6.461400032E0,-2.770400047E0,9.402099609E0
5.084319739E1,-1.788899899E0,-2.719899893E0,3.966199875E0
5.087308489E1,6.564899921E0,-9.044199944E0,7.117999792E-1
5.089311458E1,6.333600044E0,-1.083039951E1,-1.006999984E-1
5.092287395E1,4.217000008E-1,-3.674399853E0,4.411299706E0
5.095276718E1,-6.697099686E0,-6.785799980E0,2.078700066E0
5.097288697E1,-8.739799500E0,-9.201799393E0,-1.178900003E0
5.099313228E1,-6.079699993E0,-7.181299686E0,-3.615299940E0
5.102288853E1,9.145199776E0,1.685770035E1,5.168600082E0
5.104357291E1,3.368199825E0,3.281599808E1,-1.101119995E1
5.107285468E1,-6.484000087E-1,6.863599777E0,5.502500057E0
5.109323280E1,-2.403199911E0,1.618969917E1,1.816100001E0
5.112290989E1,4.286799908E0,1.238939953E1,-3.662599802E0
5.114338020E1,4.636899948E0,8.411299706E0,-2.423999906E-1
5.117291301E1,9.829999804E-1,1.363499999E0,-6.761999726E-1
5.119327135E1,-4.675000012E-1,-1.857499957E0,-2.803699970E0
5.122294791E1,-1.407999992E-1,-5.569200039E0,-3.730399847E0
5.124313385E1,-1.454399943E0,-9.387800217E0,-3.234200001E0
5.127288645E1,-3.611799955E0,-1.497689915E1,-7.143899918E0
5.129325520E1,-2.025000006E-1,-1.797830009E1,-9.790599823E0
5.132289478E1,2.059099913E0,-9.916099548E0,-8.559499741E0
5.134309218E1,-7.412999868E-1,2.141299963E0,-3.816999912E0
5.137289791E1,-2.924799919E0,2.121769905E1,9.737799644E0
5.139313072E1,-4.385999680E0,7.872399807E0,-3.734299898E0
5.142330989E1,-3.723599911E0,-8.817600250E0,-9.443200111E0
5.145497395E1,1.901899934E0,-6.547599792E0,-2.062299967E0
5.148316301E1,5.090600014E0,-5.044099808E0,-1.240100002E1
5.151315937E1,3.738799810E0,2.657079887E1,-3.344999850E-1
5.154324791E1,1.839699984E0,1.519049931E1,2.376999855E0
5.156327708E1,3.909099817E0,-2.958999872E-1,1.694499969E0
5.159313280E1,2.425199986E0,6.841799736E0,-9.044999480E-1
5.162287135E1,-8.651199341E0,2.588999987E0,7.641299725E0
5.164309062E1,-2.998299837E0,-1.354599953E0,9.056399345E0
5.167308176E1,3.240599871E0,-8.116799355E0,3.695599794E0
5.170288697E1,8.674599648E0,-1.190279961E1,-5.116999745E-1
5.172292395E1,5.229199886E0,-3.433699846E0,2.622599840E0
5.174312864E1,-3.317199945E0,-3.358500004E0,3.911799908E0
5.176486926E1,-9.885700226E0,-7.446300030E0,1.849499941E0
5.179308280E1,-6.345699787E0,-7.078899860E0,-3.330399990E0
5.182291874E1,6.122499943E0,1.808670044E1,3.467399836E0
5.184343853E1,-2.830699921E0,2.035879898E1,-8.017700195E0
5.187309166E1,1.378999949E-1,1.277189922E1,5.718199730E0
5.189320103E1,9.099999815E-2,2.146789932E1,-6.268000007E-1
5.192310885E1,4.206200123E0,1.315719986E1,-2.386699915E0
5.195600051E1,5.038399696E0,5.423999786E0,2.105999887E-1
5.198295572E1,3.206000030E-1,-2.904999852E-1,-1.518700004E0
5.201308593E1,-1.172399998E0,-5.549900055E0,-3.695899963E0
5.204322499E1,-1.404500008E0,-1.159759998E1,-5.422699928E0
5.207285208E1,-4.313299656E0,-2.061909866E1,-9.029099464E0
5.209306458E1,3.217099905E0,-2.231589890E1,-8.899999619E0
5.211351666E1,3.919699907E0,-1.321639919E1,-7.398599625E0
5.213489739E1,1.164699912E0,-4.861099720E0,-5.885299683E0
5.216305155E1,-5.401299953E0,3.615499878E1,5.680299759E0
5.219336301E1,-1.644999981E0,5.627599716E0,-2.753499985E0
5.222290833E1,-3.055299997E0,-1.586209965E1,-1.322789955E1
5.224318905E1,-5.375899792E0,-1.328789997E1,-6.917099953E0
5.227378958E1,8.610099792E0,4.869999886E-1,-1.079389954E1
5.230309791E1,1.877599955E0,3.002909851E1,-7.754599571E0
5.232316510E1,1.749999970E-1,2.022200012E1,4.811999798E-1
5.234317395E1,8.109999895E-1,4.170599937E0,6.367199898E0
5.237311614E1,4.812200069E0,5.390999794E0,2.240399837E0
5.239333072E1,4.298000038E-1,8.720099449E0,1.158800006E0
5.242321353E1,-6.773399830E0,-4.000400066E0,7.278800011E0
5.245836405E1,1.505100012E0,-6.142699718E0,3.788699865E0
5.248311822E1,5.426599979E0,-7.625199795E0,-9.757999778E-1
5.251303176E1,5.951299667E0,-3.358699799E0,5.161200047E0
5.254334218E1,-3.263299942E0,-9.154600143E0,1.380599976E0
5.257287291E1,-1.072749996E1,-8.010999680E0,-3.904500008E0
5.259330103E1,-6.235899925E0,-4.488699913E0,-4.529500008E0
5.262321770E1,1.008449936E1,2.761319923E1,2.679699898E0
5.265316405E1,-2.261699915E0,8.386400223E0,3.314399958E0
5.268292395E1,-4.637999833E-1,1.863529968E1,1.700999886E-1
5.270310103E1,2.039999887E-2,1.558519936E1,-4.368000031E0
5.273315155E1,5.938799858E0,9.932799339E0,-2.967000008E0
5.275338124E1,1.956599951E0,4.913799763E0,-2.319099903E0
5.278292239E1,-1.501099944E0,-1.889099956E0,-2.491899967E0
5.280299635E1,-2.193599939E0,-6.877799988E0,-3.432199955E0
5.283292760E1,-1.621599913E0,-1.151539993E1,-4.763700008E0
5.286290624E1,-4.023299694E0,-2.610919952E1,-7.541399956E0
5.288293280E1,4.885499954E0,-2.298799896E1,-1.329949951E1
5.291286458E1,2.990700006E0,-6.500099659E0,-9.371699333E0
5.293295312E1,-2.578899860E0,1.792119980E1,-1.338000000E-1
5.296003124E1,-8.169899940E0,1.957059860E1,8.368499756E0
5.298319426E1,-1.870099902E0,-5.521399975E0,-5.657299995E0
5.301294895E1,-4.363699913E0,-1.059859943E1,-2.240649986E1
5.303305937E1,-2.190999985E-1,9.288999557E0,-5.034699917E0
5.306295468E1,6.563999653E0,5.119299889E0,-9.753799438E0
5.308298749E1,-2.821599960E0,5.519999936E-2,-5.478699684E0
5.310324478E1,-1.684599996E0,8.549499512E0,-7.360000163E-2
5.313289322E1,4.836299896E0,1.679579926E1,3.001999855E0
5.315343697E1,9.619099617E0,3.433099985E0,3.549399853E0
5.318291822E1,-1.509999949E-2,4.883399963E0,3.431299925E0
5.321288593E1,-7.387499809E0,-1.232399940E0,6.415400028E0
5.324317812E1,2.122000009E-1,-3.759599924E0,3.825299978E0
5.327286978E1,4.553499699E0,-9.449099541E0,1.601799965E0
5.329346405E1,7.542199612E0,-5.715600014E0,3.769500017E0
5.332289218E1,1.660499930E0,-5.790400028E0,4.271399975E0
5.334337343E1,-7.663899899E0,-5.903999805E0,-4.719999805E-2
5.337283228E1,-8.699299812E0,-7.359499931E0,-6.290999889E0
5.339313697E1,-2.062399864E0,-2.884500027E0,-1.592099905E0
5.342292708E1,9.315999746E-1,2.816849899E1,-9.721499443E0
5.345518072E1,8.170999885E-1,8.938300133E0,1.046039963E1
5.348288228E1,-1.885299921E0,1.981550026E1,-8.683999777E-1
5.350296874E1,5.229000092E0,1.443479919E1,-4.419799805E0
5.352310520E1,8.213299751E0,9.700599670E0,-2.930599928E0
5.354326145E1,3.769799948E0,3.872299910E0,-8.592000008E-1
5.357290520E1,-8.879999816E-2,-4.064700127E0,-2.319000006E0
