"Time (s)","Acceleration x (m/s^2)","Acceleration y (m/s^2)","Acceleration z (m/s^2)"
0.000000000E0,2.815581083E0,1.235408115E1,8.331822157E-1
2.499687500E-2,1.532289028E0,1.277546024E1,9.193734527E-1
4.999375000E-2,2.212242365E0,1.283292103E1,2.193088770E0
7.498906200E-2,3.572149038E0,1.523670006E1,1.493981838E0
9.998437500E-2,3.179499865E0,1.278503704E1,-1.216254473E0
1.249828120E-1,4.596867263E-1,1.013226128E1,-2.537853718E0
1.499781250E-1,8.044517636E-1,1.218169785E1,-2.183511972E0
1.700015620E-1,3.447650373E-1,1.603157425E1,3.284844637E0
1.949984370E-1,-3.715801001E0,1.628057098E1,3.476380825E0
2.199937500E-1,-2.940079689E0,1.220085144E1,2.059013367E0
2.449921870E-1,2.873042040E-2,6.607996464E0,1.666364431E0
2.699875000E-1,7.182605267E-1,5.947196960E0,9.768342972E-1
2.949828120E-1,7.661445141E-1,6.244078159E0,-4.979939461E-1
3.150156250E-1,1.043871999E0,5.621585369E0,-1.091755986E0
3.400031250E-1,1.532289088E-1,3.878606796E0,8.714894056E-1
3.650000000E-1,-1.685518026E0,2.949656487E0,3.658340216E0
3.899953120E-1,-2.930502892E0,3.112462282E0,4.529829502E0
4.149906250E-1,-2.834734917E0,5.114014626E0,4.845864296E0
4.399875000E-1,-2.202665567E0,6.272808552E0,5.181052685E0
4.649843750E-1,-1.867477298E0,7.249642849E0,5.458779812E0
4.899812500E-1,-2.327163935E0,7.939172745E0,6.435614109E0
5.149781250E-1,-2.758120298E0,1.473870564E1,6.971915245E0
5.350000000E-1,1.043871999E0,1.871308136E1,5.755661011E0
5.599968750E-1,1.302445769E0,1.648168373E1,6.713341713E0
5.849921870E-1,-2.547430515E0,1.046745014E1,6.445190907E0
6.099906250E-1,-2.308010340E0,1.373314095E1,6.722918510E0
6.349859370E-1,-5.841852427E-1,1.451843929E1,-7.948749661E-1
6.599812500E-1,-2.528276920E0,5.228936672E0,-6.703764796E-1
6.849781250E-1,-3.351882458E0,1.819593310E-1,1.043871999E0
7.050015620E-1,-3.562572241E0,2.595314741E0,2.853888512E0
7.299968750E-1,1.244984865E-1,1.177947235E1,5.966350555E0
7.549937500E-1,3.208230257E0,1.363737297E1,2.135627985E0
7.799906250E-1,1.972822189E0,1.221042824E1,2.011129409E-1
8.049859370E-1,-1.436520964E-1,7.881711960E0,1.733402014E0
8.299828120E-1,-1.915361360E-2,6.004657745E0,2.231395960E0
8.549796870E-1,-9.576807022E-1,7.354987621E0,1.493981838E0
8.750015620E-1,5.267243981E-1,8.791508675E0,-9.864110947E-1
8.999984370E-1,1.580173135E0,9.682151794E0,8.044517636E-1
9.249953120E-1,7.278373241E-1,8.293514252E0,2.834734917E0
9.499906250E-1,5.267243981E-1,6.694188118E0,2.873042107E0
9.749875000E-1,6.224924326E-1,6.435614109E0,2.738966703E0
9.999843750E-1,6.224924326E-1,9.126696587E0,9.576807022E-1
1.024981250E0,7.182605267E-1,1.116655636E1,-4.309563041E-1
1.049976562E0,1.187524080E0,1.289995861E1,1.513135433E0
1.070000000E0,-3.926490843E-1,1.354160500E1,2.691082716E0
1.094995312E0,-2.403778553E0,1.305318737E1,2.068590164E0
1.119992187E0,1.991975784E0,1.542823601E1,1.407790542E0
1.144989062E0,2.844311714E0,1.534204483E1,5.363011956E-1
1.169985937E0,3.524264812E0,9.758766174E0,7.469909191E-1
1.194982812E0,6.531382084E0,1.340752983E1,1.388636947E0
1.219978125E0,2.892195702E0,1.902911568E1,2.394201756E0
1.240000000E0,-2.279279947E0,1.726698303E1,2.844311714E0
1.264996875E0,-3.083731890E0,1.036210537E1,2.336740971E0
1.289993750E0,-2.240972757E0,6.675034523E0,2.815581083E0
1.314990625E0,-5.267243981E-1,5.152322292E0,1.953668594E0
1.339985937E0,2.106897533E-1,5.861005783E0,9.481038451E-1
1.364982812E0,9.576806426E-2,6.598419666E0,-9.576806426E-2
1.389979687E0,-6.703764945E-2,4.663905144E0,0.000000000E0
1.410001562E0,-2.020706177E0,2.719813108E0,2.940079689E0
1.434998437E0,-2.700659513E0,2.844311714E0,3.217807055E0
1.459995312E0,-2.183511972E0,3.447650433E0,2.662352324E0
1.484990625E0,-1.072602391E0,3.907337189E0,3.208230257E0
1.509987500E0,-5.075707436E-1,4.979939461E0,5.190629482E0
1.529987500E0,-1.264138460E0,6.646304131E0,7.259219646E0
1.550001562E0,-2.547430515E0,9.279925346E0,9.538499832E0
1.574996875E0,-1.589749932E0,2.203623199E1,9.797073364E0
1.599993750E0,-8.236053586E-1,2.255337906E1,3.821146011E0
1.624990625E0,-2.557007313E0,1.095586681E1,3.754108191E0
1.649985937E0,-4.730942726E0,8.188169479E0,6.579266071E0
1.674981250E0,-2.106897593E0,1.505473995E1,1.714248419E0
1.699979687E0,3.246537447E0,8.130708694E0,-2.949656487E0
1.720001562E0,-2.212242365E0,3.141192675E0,-2.882618904E0
1.744998437E0,-3.189076662E0,4.472368717E0,4.692635536E0
1.769995312E0,7.661445439E-2,9.260771751E0,6.110002518E0
1.794990625E0,1.417367458E0,1.242111874E1,1.723825186E-1
1.819987500E0,1.561019540E0,1.482489681E1,-1.340752959E0
1.844982812E0,1.484405041E0,9.576807022E0,1.005564690E0
1.869981250E0,8.619126081E-1,5.181052685E0,2.767697096E0
1.894976562E0,3.734954596E-1,3.648763418E0,2.959233284E0
1.915000000E0,4.405331016E-1,5.343858242E0,1.197100878E0
1.939995312E0,9.768342972E-1,8.178592682E0,-4.118026793E-1
1.964992187E0,1.312022567E0,9.998186111E0,-1.302445769E0
1.989989062E0,1.053448766E-1,8.274360657E0,-7.757213712E-1
2.014984375E0,-3.256114423E-1,7.671022415E0,1.139639974E0
2.039981250E0,-1.244984865E0,1.006522369E1,7.852981687E-1
2.064978125E0,-1.561019540E0,1.102290440E1,3.160346150E-1
2.085000000E0,7.565677166E-1,1.139640045E1,2.585737705E-1
2.109996875E0,2.652775526E0,1.244984913E1,1.235408068E0
2.134993750E0,1.388636947E0,1.361821938E1,1.388636947E0
2.159990625E0,1.924938202E0,1.380975533E1,1.302445769E0
2.184985937E0,3.476380825E0,1.618480301E1,-3.543418646E-1
2.209982812E0,2.240972757E0,1.325430107E1,-2.049436569E0
2.234979687E0,1.206677675E0,1.283292103E1,-1.867477298E0
2.255001562E0,0.000000000E0,1.235408115E1,3.639186621E-1
2.279998437E0,-1.551442742E0,1.367568016E1,1.101332784E0
2.304995312E0,-3.246537447E0,1.376187134E1,1.963245392E0
2.329990625E0,-3.083731890E0,1.146343803E1,2.078166962E0
2.354987500E0,9.576806799E-3,8.274360657E0,1.752555609E0
2.379984375E0,2.011129379E0,5.966350555E0,1.379060149E0
2.404981250E0,1.972822189E0,6.234501362E0,7.182605267E-1
2.429998437E0,7.374141216E-1,7.268796444E0,-6.799532771E-1
2.450000000E0,2.585737705E-1,6.081272125E0,-3.064578176E-1
2.474995312E0,-6.703764796E-1,3.821146011E0,1.675941229E0
2.499992187E0,-1.771709204E0,2.624045134E0,2.834734917E0
2.524987500E0,-1.675941229E0,2.700659513E0,2.834734917E0
2.549984375E0,-1.742978811E0,3.438073635E0,3.428496838E0
2.574981250E0,-1.991975784E0,4.845864296E0,4.529829502E0
2.599978125E0,-3.007117271E0,6.703764915E0,6.512228489E0
2.620001562E0,-3.677493811E0,1.089840603E1,9.452308655E0
2.644996875E0,-8.044517636E-1,2.676717567E1,9.375694275E0
2.669992187E0,-1.503558636E0,1.722867584E1,3.916913986E0
2.694990625E0,-6.540958881E0,7.517793179E0,6.722918510E0
2.719985937E0,-7.182605267E0,1.135809326E1,8.590395927E0
2.744981250E0,2.873042107E0,1.582088470E1,-1.206677675E0
2.769978125E0,3.629609823E0,4.970362663E0,-6.023811340E0
2.790000000E0,-2.135627985E0,1.455674648E0,-3.409343243E0
2.814996875E0,1.225831270E0,6.349422932E0,7.489062786E0
2.839993750E0,1.417367458E0,9.270348549E0,4.510675907E0
2.864990625E0,-6.416460276E-1,1.553358078E1,-2.987963676E0
2.889985937E0,-1.388636947E0,1.293826580E1,-3.830722719E-2
2.914984375E0,2.106897533E-1,6.301538944E0,2.489969730E0
2.939979687E0,5.746083856E-1,3.897760391E0,1.905784607E0
2.960003125E0,7.278373241E-1,4.271255970E0,7.086837292E-1
2.984998437E0,7.182605267E-1,6.445190907E0,-6.799532771E-1
3.009995312E0,9.864110947E-1,8.992621422E0,-1.254561663E0
3.034992187E0,3.064578176E-1,1.104205799E1,-1.819593310E-1
3.059987500E0,7.278373241E-1,8.475474358E0,2.614468336E0
3.084984375E0,4.309563041E-1,7.278373241E0,4.405331016E-1
3.109981250E0,-3.591302633E0,1.242111874E1,-4.022258818E-1
3.134976562E0,4.788403213E-2,1.291911221E1,2.260126352E0
3.155000000E0,3.332728863E0,1.151132202E1,2.068590164E0
3.179995312E0,2.336740971E0,1.266053867E1,8.236053586E-1
3.204992187E0,8.906430602E-1,1.276588345E1,7.086837292E-1
3.229989062E0,3.227383852E0,1.691264153E1,3.734954596E-1
3.254984375E0,4.328716755E0,1.445140171E1,-7.948749661E-1
3.279981250E0,2.221819162E0,1.316810894E1,-4.290409565E0
3.304978125E0,-6.224924326E-1,1.161666679E1,-1.695094824E0
3.325000000E0,-1.656787634E0,1.181777954E1,1.944091797E0
3.349998437E0,-1.513135433E0,1.361821938E1,2.920926094E0
3.374992187E0,-2.643198729E0,1.275630665E1,1.513135433E0
3.399990625E0,-9.576806799E-3,1.017056847E1,1.082179189E0
3.424985937E0,1.426944256E0,6.761225700E0,1.388636947E0
3.449982812E0,1.426944256E0,6.263231754E0,3.734954596E-1
3.474979687E0,6.512228847E-1,6.789956093E0,-8.619126081E-1
3.495001562E0,-2.011129409E-1,5.746084213E0,-5.363011956E-1
3.519998437E0,-1.838746905E0,3.782838583E0,1.618480325E0
3.544995312E0,-2.738966703E0,2.806004286E0,2.652775526E0
3.569992187E0,-1.599326730E0,3.169923067E0,2.145204782E0
3.594987500E0,-1.254561663E0,3.811569214E0,2.576161146E0
3.619982812E0,-1.991975784E0,4.663905144E0,3.801992416E0
3.644979687E0,-2.422932148E0,5.841852188E0,5.659893036E0
3.669978125E0,-2.298433542E0,1.064940929E1,9.433155060E0
3.690000000E0,1.340752989E-1,2.450704765E1,1.023760605E1
3.714995312E0,-1.091755986E0,2.350148392E1,3.189076662E0
3.739992187E0,-4.922478676E0,6.971915245E0,6.818686485E0
3.764987500E0,-5.908889771E0,3.016694069E0,8.446743965E0
3.789985937E0,-1.446097851E0,1.075475407E1,4.826710701E0
3.814981250E0,8.331821442E0,1.333091545E1,-4.357447147E0
3.839978125E0,-2.499546528E0,7.795520782E0,-7.431602001E0
3.860000000E0,-4.299986362E0,8.101978302E0,1.589749932E0
3.884995312E0,-5.746083856E-1,8.504204750E0,6.742072105E0
3.909992187E0,-1.474828243E0,1.096544361E1,-8.523358107E-1
3.934989062E0,-9.097966552E-1,1.200931549E1,-2.279279947E0
3.959985937E0,1.857900500E0,1.025675964E1,5.075707436E-1
3.984982812E0,2.624045134E0,8.111555099E0,2.173935175E0
4.009979687E0,1.484405041E0,5.123591423E0,2.633621931E0
4.030001562E0,5.267243981E-1,4.443638325E0,1.379060149E0
4.054996875E0,0.000000000E0,6.646304131E0,3.830722570E-1
4.079993750E0,3.830722570E-1,9.605537415E0,-4.979939461E-1
4.104990625E0,-1.532289088E-1,1.024718285E1,-9.768342972E-1
4.129985937E0,9.576806799E-3,7.910442352E0,2.020706177E0
4.154982812E0,-2.011129409E-1,8.370129585E0,1.628057122E0
4.179981250E0,-1.379060149E0,1.008437729E1,4.596867263E-1
4.204976562E0,5.650315881E-1,1.199016190E1,7.182605267E-1
4.224998437E0,3.102885485E0,1.190397072E1,1.819593310E-1
4.249995312E0,2.212242365E0,1.289995861E1,8.236053586E-1
4.274990625E0,1.379060149E0,1.461420727E1,1.015141487E0
4.299989062E0,2.758120298E0,1.722867584E1,1.149216816E-1
4.324982812E0,2.671929121E0,1.405875206E1,-6.129156351E-1
4.349981250E0,1.149216816E-1,1.207635307E1,-3.955221176E0
4.374976562E0,-1.819593310E0,1.047702694E1,-2.106897533E-1
4.395000000E0,-7.948749661E-1,1.142513084E1,3.035847664E0
4.419995312E0,-2.202665567E0,1.289995861E1,2.882618904E0
4.444993750E0,-2.901772499E0,1.217212105E1,3.007117271E0
4.469989062E0,-4.596867263E-1,9.950302124E0,2.212242365E0
4.494985937E0,1.704671621E0,7.642292023E0,1.312022567E0
4.515006250E0,1.331176162E0,6.895300865E0,6.991068721E-1
4.539973437E0,3.639186621E-1,7.115567684E0,1.532289088E-1
4.559995312E0,-1.532289088E-1,6.014234543E0,4.213795066E-1
4.584992187E0,-1.465251446E0,3.936067581E0,2.183511972E0
4.609989062E0,-2.298433542E0,3.083731890E0,3.102885485E0
4.634984375E0,-2.767697096E0,3.466804028E0,2.557007313E0
4.659981250E0,-1.752555609E0,4.616020679E0,2.547430515E0
4.684978125E0,-5.075707436E-1,5.573701382E0,3.849876404E0
4.705001562E0,-9.576806799E-3,6.416460514E0,5.027823448E0
4.725015625E0,-9.002198577E-1,7.450755596E0,6.339846134E0
4.749987500E0,-2.355894566E0,1.051533413E1,7.939172745E0
4.774982812E0,-4.501099288E-1,2.148077774E1,8.082824707E0
4.799981250E0,9.576806799E-3,1.861731148E1,4.041412354E0
4.824978125E0,-3.064578056E0,7.958326340E0,5.966350555E0
4.845000000E0,-3.217807055E0,6.713341713E0,7.019799232E0
4.869995312E0,1.628057212E-1,1.524627686E1,2.078166962E0
4.894993750E0,1.781286120E0,1.455674648E1,-5.372588634E0
4.919989062E0,-6.215347767E0,4.089296341E0,-9.289502501E-1
4.944985937E0,-5.190629482E0,3.428496838E0,5.018246651E0
4.969981250E0,-1.407790542E0,7.843404770E0,6.004657745E0
4.994978125E0,2.384624958E0,1.182735634E1,-7.374141216E-1
5.015001562E0,3.351882458E0,1.505473995E1,-2.624045134E0
5.039996875E0,2.873042107E0,1.107078838E1,5.937620401E-1
5.064993750E0,1.043871999E0,5.544970989E0,3.131615877E0
5.089990625E0,-2.202665508E-1,3.227383852E0,3.428496838E0
5.115004687E0,-3.256114423E-1,5.343858242E0,6.607996821E-1
5.139982812E0,4.884171486E-1,8.724471092E0,-4.022258818E-1
5.164979687E0,9.193734527E-1,1.082179165E1,-1.187524080E0
5.185001562E0,1.340752989E-1,9.318233490E0,-1.436520964E-1
5.209996875E0,1.149216816E-1,7.441178799E0,1.244984865E0
5.235021875E0,-2.777273953E-1,9.030928612E0,1.005564690E0
5.259990625E0,-6.320692301E-1,1.124317074E1,5.363011956E-1
5.284987500E0,1.235408068E0,1.150174522E1,9.672574997E-1
5.309982812E0,2.604891539E0,1.166455078E1,1.197100878E0
5.334981250E0,1.436521053E0,1.253604031E1,8.331822157E-1
5.354992187E0,1.790862918E0,1.489193439E1,7.661445141E-1
5.374993750E0,2.873042107E0,1.712333107E1,4.213795066E-1
5.399989062E0,2.920926094E0,1.493024158E1,-1.628057212E-1
5.424985937E0,1.905784607E0,1.232535076E1,-3.055001259E0
5.449982812E0,-7.757213712E-1,1.001733971E1,-1.685518026E0
5.475007812E0,-1.934514999E0,1.131020927E1,2.882618904E0
5.499976562E0,-2.394201756E0,1.294784260E1,2.892195702E0
5.519998437E0,-2.719813108E0,1.230619717E1,2.566584110E0
5.544995312E0,-1.149216771E0,1.019929886E1,2.240972757E0
5.569990625E0,9.959878922E-1,7.958326340E0,1.503558636E0
5.594989062E0,1.589749932E0,6.809109688E0,3.160346150E-1
5.619984375E0,6.607996821E-1,6.703764915E0,-4.596867263E-1
5.644981250E0,-1.628057212E-1,4.970362663E0,-3.830722719E-2
5.669976562E0,-1.379060149E0,3.236960649E0,1.570596337E0
5.689998437E0,-1.742978811E0,2.873042107E0,2.509123325E0
5.715018750E0,-1.407790542E0,3.476380825E0,2.719813108E0
5.739992187E0,-2.011129379E0,4.529829502E0,2.911349297E0
5.764989062E0,-2.442085743E0,5.947196960E0,3.936067581E0
5.789984375E0,-1.800439715E0,8.350975990E0,6.033388138E0
5.814981250E0,-1.158793569E0,1.610818863E1,9.557653427E0
5.839978125E0,-1.139639974E0,2.288856888E1,4.548983097E0
5.860000000E0,-2.614468336E0,1.490151119E1,2.126051188E0
5.884996875E0,-3.371036053E0,4.644751072E0,4.702212334E0
5.909993750E0,-3.303998232E0,1.033337498E1,6.339846134E0
5.934990625E0,1.072602391E0,1.586876869E1,4.501099288E-1
5.955010937E0,1.628057122E0,1.291911221E1,-4.587290287E0
5.979976562E0,-4.740519524E0,6.904877663E0,-1.187524080E0
6.000000000E0,-4.223371983E0,5.066130638E0,7.287950039E0
6.024996875E0,-9.193734527E-1,5.822698593E0,9.835380554E0
6.049990625E0,5.171475410E-1,9.356540680E0,1.675941229E0
6.075001562E0,2.442085743E0,1.485362720E1,-7.374141216E-1
6.099984375E0,1.752555609E0,1.262223148E1,5.267243981E-1
6.124981250E0,9.193734527E-1,5.889736176E0,3.284844637E0
6.145003125E0,7.278373241E-1,3.620033026E0,4.386177540E0
6.170000000E0,0.000000000E0,4.089296341E0,2.135627985E0
6.194995312E0,-4.118026793E-1,8.006210327E0,4.788403511E-1
6.219992187E0,-2.489969730E-1,9.864110947E0,1.580173135E0
6.244990625E0,-5.171475410E-1,8.207323074E0,2.126051188E0
6.269985937E0,-2.489969730E-1,8.034940720E0,1.972822189E0
6.294982812E0,1.819593310E-1,9.911994934E0,3.303998232E0
6.315020312E0,2.489969730E-1,1.113782597E1,3.160346270E0
6.340001562E0,1.359906554E0,9.825803757E0,1.149216771E0
6.364998437E0,2.422932148E0,1.110909557E1,1.388636947E0
6.389993750E0,1.781286120E0,1.314895535E1,2.269703150E0
6.414990625E0,2.710236311E0,1.616564941E1,3.351882458E0
6.439987500E0,2.279279947E0,1.601242065E1,2.432508945E0
6.464982812E0,1.015141487E0,1.293826580E1,1.455674648E0
6.489979687E0,1.561019540E0,1.082179165E1,1.321599364E0
6.514976562E0,2.662352324E0,1.091755962E1,2.671929121E0
6.535000000E0,7.374141216E-1,1.256477070E1,3.284844637E0
6.555018750E0,-2.078166962E0,1.311064816E1,4.395754337E0
6.579985937E0,-9.959878922E-1,1.147301483E1,2.892195702E0
6.604982812E0,-2.298433632E-1,8.504204750E0,1.704671621E0
6.629978125E0,-1.407790542E0,5.975927353E0,1.091755986E0
6.650000000E0,-1.551442742E0,5.353435040E0,8.810662031E-1
6.675010937E0,-8.906430602E-1,5.449203014E0,1.149216771E0
6.699995312E0,-3.639186621E-1,4.970362663E0,9.768342972E-1
6.724990625E0,-7.565677166E-1,5.228936672E0,2.078166962E0
6.749987500E0,-1.043871999E0,5.420472622E0,2.825158119E0
6.774984375E0,-2.250549555E0,6.196194172E0,3.849876404E0
6.799979687E0,-2.614468336E0,6.205770969E0,4.223371983E0
6.824976562E0,-1.589749932E0,7.019799232E0,4.127603531E0
6.845000000E0,-4.309563041E-1,7.584830761E0,5.142745018E0
6.869995312E0,1.302445769E0,1.059194851E1,6.502651691E0
6.894992187E0,2.011129379E0,1.476743603E1,4.759673119E0
6.919989062E0,6.224924326E-1,1.425986576E1,6.167463779E0
6.944985937E0,-2.978386879E0,9.222464561E0,7.508216381E0
6.969981250E0,2.873042040E-2,1.488235760E1,4.232948780E0
6.994978125E0,1.790862918E0,1.479616642E1,-2.422932148E0
7.015001562E0,-2.240972757E0,1.072602367E1,-3.150769472E0
7.039995312E0,-5.142745018E0,4.769249916E0,2.279279947E0
7.064993750E0,-2.595314741E0,6.981492043E0,6.004657745E0
7.089989062E0,2.738966703E0,8.868123055E0,3.189076662E0
7.114987500E0,1.503558636E0,1.098459721E1,1.905784607E0
7.139982812E0,1.752555609E0,9.864110947E0,3.466804028E0
7.164979687E0,1.608903527E0,7.987056732E0,3.495534420E0
7.185001562E0,1.647210717E0,6.971915245E0,4.003105164E0
7.209996875E0,2.470816135E0,6.722918510E0,2.461239338E0
7.234993750E0,1.082179189E0,8.121131897E0,2.461239338E0
7.259990625E0,2.489969730E-1,8.753201485E0,4.003105164E0
7.284987500E0,1.168370485E0,8.034940720E0,2.834734917E0
7.309982812E0,4.309563041E-1,7.469909191E0,2.212242365E0
7.334979687E0,4.979939461E-1,9.385271072E0,2.700659513E0
7.355001562E0,1.656787634E0,9.500192642E0,2.949656487E0
7.379998437E0,2.001552582E0,8.724471092E0,2.978386879E0
7.404995312E0,1.110909581E0,1.020887566E1,2.422932148E0
7.429996875E0,1.359906554E0,1.174116516E1,1.982398987E0
7.454989062E0,4.022258818E-1,1.118570995E1,2.786850691E0
7.479982812E0,4.357447147E0,1.496854877E1,1.704671621E0
7.504981250E0,3.275267839E0,1.464293766E1,1.139639974E0
7.529978125E0,3.409343243E0,1.095586681E1,8.906430602E-1
7.550000000E0,1.647210717E0,1.024718285E1,4.213795185E0
7.574995312E0,3.179499865E0,1.155920601E1,5.439626217E0
7.594995312E0,3.284844637E0,1.279461384E1,5.564124584E0
7.619984375E0,9.289502501E-1,1.306276417E1,3.830722809E0
7.644981250E0,-5.267243981E-1,1.034295177E1,1.867477298E0
7.665001562E0,-1.264138460E0,8.034940720E0,2.317587137E0
7.689998437E0,-1.091755986E0,6.847416878E0,2.068590164E0
7.714995312E0,-6.799532771E-1,6.320692539E0,1.656787634E0
7.739990625E0,-6.033388376E-1,5.391742229E0,2.470816135E0
7.764989062E0,-1.216254473E0,4.970362663E0,2.106897593E0
7.789984375E0,-2.470816135E0,4.577713490E0,2.298433542E0
7.814982812E0,-1.359906554E0,4.146757126E0,3.543418407E0
7.839978125E0,-5.267243981E-1,5.133168221E0,4.347870350E0
7.860000000E0,0.000000000E0,5.841852188E0,4.759673119E0
7.884996875E0,8.523358107E-1,7.096413612E0,5.525817394E0
7.909992187E0,6.799532771E-1,9.672574997E0,6.464344501E0
7.934990625E0,-4.884171486E-1,1.217212105E1,6.828263283E0
7.959985937E0,6.703764796E-1,1.664448929E1,7.077260017E0
7.984981250E0,1.206677675E0,1.470039845E1,5.966350555E0
8.009978125E0,-1.561019540E0,8.073247910E0,5.286397457E0
8.030001562E0,-2.557007313E0,7.019799232E0,5.592854977E0
8.054998437E0,-3.830722719E-2,1.354160500E1,2.873042107E0
8.079993750E0,1.991975784E0,1.513135433E1,-3.840299606E0
8.104990625E0,-4.778826714E0,6.205770969E0,-2.011129379E0
8.129985937E0,-5.516240597E0,3.332728863E0,4.386177540E0
8.154984375E0,-1.398213744E0,6.809109688E0,6.924031258E0
8.179979687E0,2.135627985E0,1.056321812E1,3.160346150E-1
8.200001562E0,3.840299606E0,1.409705925E1,-1.915361404E0
8.224998437E0,2.968810081E0,1.200931549E1,1.091755986E0
8.249995312E0,1.436521053E0,7.393294811E0,2.557007313E0
8.274992187E0,5.650315881E-1,4.242525578E0,2.442085743E0
8.299987500E0,7.182605267E-1,5.248090267E0,1.608903527E0
8.324984375E0,6.320692301E-1,8.331821442E0,7.278373241E-1
8.349979687E0,0.000000000E0,1.116655636E1,5.171475410E-1
8.374978125E0,-4.213795066E-1,1.048660374E1,1.589749932E0
8.395000000E0,-4.213795066E-1,8.188169479E0,3.141192675E0
8.419996875E0,1.915361360E-2,6.856993675E0,6.129156351E-1
8.444993750E0,5.746084079E-2,8.398859978E0,-1.503558636E0
8.469989062E0,1.187524080E0,1.278503704E1,-1.580173135E0
8.494985937E0,2.470816135E0,1.291911221E1,1.896207690E0
8.519981250E0,2.250549555E0,1.344583702E1,2.422932148E0
8.544978125E0,2.681505919E0,1.760217094E1,-2.873042040E-2
8.565001562E0,2.106897593E0,1.751597977E1,-1.206677675E0
8.589996875E0,5.746083856E-1,1.321599293E1,-9.002198577E-1
8.614993750E0,-5.746083856E-1,1.084094524E1,-8.236053586E-1
8.639989062E0,-1.551442742E0,8.140285492E0,1.053448796E0
8.664987500E0,-2.394201756E-1,1.140597725E1,2.317587137E0
8.689982812E0,-1.637633920E0,1.421198082E1,3.112462282E0
8.714979687E0,-1.647210717E0,1.251688671E1,2.719813108E0
8.735001562E0,-2.873042040E-2,9.730035782E0,1.675941229E0
8.759998437E0,1.886630893E0,7.134721279E0,1.331176162E0
8.784995312E0,1.819593310E0,5.975927353E0,5.554547906E-1
8.809990625E0,9.959878922E-1,6.493074894E0,-4.788403511E-1
8.835009375E0,3.830722719E-2,6.129156113E0,2.585737705E-1
8.859984375E0,-1.350329757E0,5.334281445E0,2.068590164E0
8.884981250E0,-2.097320795E0,4.769249916E0,2.652775526E0
8.909978125E0,-1.752555609E0,5.152322292E0,2.288856745E0
8.930000000E0,-1.091755986E0,5.305551052E0,2.681505919E0
8.955042187E0,-1.359906554E0,5.487510204E0,4.232948780E0
8.979992187E0,-1.934514999E0,5.573701382E0,6.196194172E0
9.004990625E0,-2.777273893E0,7.489062786E0,8.542511940E0
9.029984375E0,-9.768342972E-1,1.631887817E1,1.088882923E1
9.054982812E0,4.405331016E-1,2.190215683E1,4.472368717E0
9.079976562E0,-3.495534420E0,1.046745014E1,5.133168221E0
9.100000000E0,-3.725377798E0,5.918466568E0,7.393294811E0
9.124996875E0,-9.481038451E-1,1.413536644E1,3.533841610E0
9.149993750E0,4.683058739E0,1.246900272E1,-4.137180328E0
9.174990625E0,-1.158793569E0,4.635174274E0,-4.108449936E0
9.199984375E0,-2.662352324E0,4.050989151E0,4.989516258E0
9.224982812E0,1.819593310E-1,8.216899872E0,6.157886982E0
9.249979687E0,-2.394201756E-1,1.296699619E1,-1.053448796E0
9.270001562E0,6.512228847E-1,1.393425369E1,-4.501099288E-1
9.294998437E0,2.470816135E0,9.653421402E0,1.752555609E0
9.315007812E0,1.455674648E0,7.010222435E0,2.489969730E0
9.339984375E0,5.746083856E-1,4.558559895E0,2.346317768E0
9.364982812E0,8.140285611E-1,5.334281445E0,6.799532771E-1
9.389978125E0,9.768342972E-1,7.048529625E0,-1.149216771E0
9.410001562E0,5.841852427E-1,1.021845245E1,-2.949656487E0
9.435009375E0,1.532289088E-1,1.014183807E1,-1.857900500E0
9.459993750E0,-9.959878922E-1,9.299078941E0,1.407790542E0
9.484990625E0,-1.101332784E0,9.797073364E0,3.639186621E0
9.509984375E0,-6.129156351E-1,1.083136845E1,1.053448796E0
9.534982812E0,1.005564690E0,1.238281155E1,-2.777273953E-1
9.559978125E0,1.781286120E0,1.141555405E1,1.101332784E0
9.580000000E0,1.426944256E0,1.181777954E1,1.982398987E0
9.604998437E0,1.800439715E0,1.264138508E1,2.528276920E0
9.629995312E0,3.524264812E0,1.547612000E1,5.171475410E-1
9.654990625E0,2.815581083E0,1.428859615E1,-1.474828243E0
9.679985937E0,6.416460276E-1,1.236365795E1,-3.648763418E0
9.704984375E0,-5.363011956E-1,1.054406452E1,1.005564690E0
9.729979687E0,2.097320795E0,1.255519390E1,2.001552582E0
9.754985937E0,-1.915361285E-1,1.507389355E1,1.704671621E0
9.774998437E0,-1.637633920E0,1.351287460E1,2.260126352E0
9.799995312E0,-6.320692301E-1,1.054406452E1,2.758120298E0
9.824992187E0,9.097966552E-1,7.527369976E0,2.212242365E0
9.849989062E0,9.576807022E-1,6.186617374E0,7.757213712E-1
9.874985937E0,5.650315881E-1,6.502651691E0,-3.926490843E-1
9.899981250E0,7.661445439E-2,5.612008572E0,1.149216816E-1
9.924978125E0,-1.254561663E0,4.118026733E0,1.857900500E0
9.945000000E0,-1.781286120E0,3.198653460E0,2.652775526E0
9.969996875E0,-1.244984865E0,3.208230257E0,2.825158119E0
9.994992187E0,-8.331822157E-1,3.591302633E0,3.552995205E0
1.001998906E1,-1.608903527E0,4.481945515E0,5.343858242E0
1.004498594E1,-2.767697096E0,6.167463779E0,6.234501362E0
1.006998125E1,-1.656787634E0,9.404424667E0,9.088389397E0
1.009497812E1,1.742978811E0,2.114558983E1,8.590395927E0
1.011500156E1,-1.110909581E0,2.215115356E1,4.079719543E0
1.013999688E1,-3.687070608E0,9.739612579E0,6.828263283E0
1.016499375E1,-3.706224203E0,1.139639974E0,7.125144482E0
1.018999062E1,-2.700659513E0,8.101978302E0,4.912901878E0
1.021498750E1,3.093308687E0,1.563892555E1,-4.079719543E0
1.023499062E1,9.385270476E-1,1.778413010E1,-6.943184853E0
1.025500000E1,-4.386177540E0,1.228704357E1,-4.405331016E-1
1.027501250E1,-7.757213712E-1,5.573701382E0,5.525817394E0
1.029998750E1,-1.628057212E-1,3.524264812E0,4.501099110E0
1.032498438E1,1.723825186E-1,6.828263283E0,-1.350329757E0
1.034997969E1,2.221819162E0,1.340752983E1,-2.767697096E0
1.037497812E1,1.225831270E0,1.317768574E1,1.225831270E0
1.039503438E1,5.363011956E-1,8.015787125E0,3.198653460E0
1.041999531E1,1.225831270E0,5.181052685E0,5.650315881E-1
1.044499219E1,1.331176162E0,6.148310184E0,-2.011129409E-1
1.046998750E1,1.484405041E0,8.360552788E0,-6.703764945E-2
1.049498594E1,1.034295082E0,9.548076630E0,5.458779931E-1
1.051998125E1,1.599326730E0,7.422025204E0,3.734954596E-1
1.054497812E1,1.063025594E0,7.450755596E0,4.118026793E-1
1.056500000E1,-4.596867263E-1,1.102290440E1,6.895300746E-1
1.058999688E1,-8.906430602E-1,1.101332760E1,1.110909581E0
1.061499375E1,1.350329757E0,1.278503704E1,1.321599364E0
1.063499844E1,2.662352324E0,1.255519390E1,1.924938202E0
1.065998125E1,4.309563041E-1,1.246900272E1,1.637633920E0
1.068497812E1,6.607996821E-1,1.274672985E1,1.158793569E0
1.070499844E1,2.288856745E0,1.636676216E1,-1.819593310E-1
1.072999531E1,1.656787634E0,1.327345467E1,-2.202665567E0
1.074999688E1,1.216254473E0,1.269884586E1,-2.777273893E0
1.077498281E1,5.841852427E-1,1.313937855E1,-3.447650373E-1
1.079997969E1,-1.436521053E0,1.247857952E1,4.118026793E-1
1.082000156E1,-1.053448796E0,1.306276417E1,9.576807022E-1
1.084502188E1,-1.934514999E0,1.312980175E1,3.189076662E0
1.086999375E1,-1.091755986E0,1.148259163E1,1.963245392E0
1.089499219E1,1.197100878E0,8.025363922E0,1.149216771E0
1.091998906E1,2.308010340E0,6.062118530E0,5.458779931E-1
1.094498438E1,1.589749932E0,6.071695328E0,2.873042040E-2
1.096997969E1,1.264138460E0,5.382165432E0,7.661445439E-2
1.099497813E1,-7.852981687E-1,4.031835556E0,1.714248419E0
1.101499844E1,-2.518700123E0,3.189076662E0,3.122039080E0
1.103999531E1,-2.604891539E0,2.738966703E0,2.039859772E0
1.106499219E1,0.000000000E0,3.169923067E0,2.710236311E0
1.108998906E1,-1.628057212E-1,3.993528366E0,5.027823448E0
1.111500781E1,-1.206677675E0,6.272808552E0,6.550535679E0
1.113998125E1,-2.298433542E0,1.174116516E1,9.107542992E0
1.116497813E1,-4.750096321E0,2.247676468E1,6.924031258E0
1.118500156E1,-5.181052685E0,2.133712578E1,1.752555609E0
1.120999688E1,-2.604891539E0,7.738059998E0,7.642292023E0
1.123502813E1,-2.279279947E0,4.261679173E0,9.911994934E0
1.125998906E1,1.934514999E0,1.195185471E1,8.762778282E0
1.128498594E1,7.029376030E0,1.788947487E1,-8.044517517E0
1.130998281E1,-1.752555609E0,9.921571732E0,-6.454767704E0
1.133497969E1,-4.941632271E0,2.614468336E0,5.181052685E0
1.135502812E1,-1.589749932E0,3.811569214E0,8.485051155E0
1.137999688E1,-2.394201756E0,6.828263283E0,3.687070608E0
1.140499375E1,-4.501099288E-1,1.476743603E1,-2.786850691E0
1.142999062E1,2.346317768E0,1.387679291E1,-3.256114423E-1
1.145498750E1,2.183511972E0,8.820239067E0,2.164358377E0
1.147499062E1,1.005564690E0,4.788403511E0,2.853888512E0
1.149500469E1,4.118026793E-1,3.744531393E0,1.790862918E0
1.151999688E1,2.585737705E-1,6.100425720E0,2.106897533E-1
1.154499531E1,7.182605267E-1,9.011775017E0,7.086837292E-1
1.156999062E1,1.532289028E0,9.950302124E0,6.320692301E-1
1.159502812E1,1.551442742E0,7.345410824E0,-6.703764945E-2
1.161998281E1,1.628057212E-1,7.038952827E0,-4.884171486E-1
1.164497969E1,-1.838746905E0,1.072602367E1,5.458779931E-1
1.166500312E1,-8.331822157E-1,1.096544361E1,1.034295082E0
1.168999688E1,1.063025594E0,1.170285797E1,1.091755986E0
1.171501719E1,3.217807055E0,1.194227791E1,1.551442742E0
1.173999062E1,1.628057122E0,1.349372101E1,1.388636947E0
1.176498906E1,1.024718285E0,1.333091545E1,1.398213744E0
1.178998438E1,3.466804028E0,1.693179512E1,5.746083856E-1
1.181498125E1,2.767697096E0,1.323514652E1,-1.197100878E0
1.183997656E1,8.140285611E-1,1.230619717E1,-3.955221176E0
1.185999844E1,-3.351882398E-1,1.173158836E1,-1.264138460E0
1.188499688E1,3.351882398E-1,1.256477070E1,2.442085743E0
1.190999219E1,5.171475410E-1,1.336922264E1,1.561019540E0
1.193498906E1,-9.193734527E-1,1.259350109E1,2.126051188E0
1.195998438E1,3.734954596E-1,1.027591324E1,2.154781580E0
1.198498125E1,1.742978811E0,7.460332394E0,1.273715258E0
1.200997812E1,1.474828243E0,6.023811340E0,4.213795066E-1
1.203000000E1,5.746083856E-1,6.110002518E0,-3.830722719E-2
1.205499844E1,-5.267243981E-1,5.257667065E0,-2.873042040E-2
1.207500000E1,-1.742978811E0,3.811569214E0,1.455674648E0
1.209998438E1,-3.064578056E0,2.882618904E0,2.671929121E0
1.212498125E1,-2.240972757E0,3.696647406E0,2.911349297E0
1.214997656E1,-1.149216771E0,4.290409565E0,2.719813108E0
1.216999844E1,-4.692635238E-1,4.414907932E0,3.993528366E0
1.219499531E1,-1.407790542E0,5.899312973E0,6.215347767E0
1.221999219E1,-2.413355350E0,8.580819130E0,7.498639584E0
1.224498906E1,-1.762132406E0,1.439394093E1,8.456320763E0
1.226998594E1,1.072602391E0,2.467943192E1,4.855441093E0
1.229498125E1,-1.704671621E0,1.275630665E1,5.851428986E0
1.231997812E1,-2.796427488E0,4.424484730E0,9.758766174E0
1.234000000E1,-3.620033026E0,1.252646351E1,6.311115742E0
1.236499844E1,1.618480325E0,1.702756310E1,-3.811569214E0
1.238999375E1,1.762132406E0,4.481945515E0,-5.449203014E0
1.241499063E1,-3.811569214E0,1.685518026E0,4.185064793E0
1.243998594E1,-1.158793569E0,6.244078159E0,8.887276649E0
1.246498281E1,-9.576806426E-2,1.335964584E1,3.313575268E0
1.248997812E1,2.106897533E-1,1.727655983E1,-1.953668594E0
1.251000156E1,1.110909581E0,1.197100830E1,1.225831270E0
1.253499844E1,1.896207690E0,7.029376030E0,2.336740971E0
1.255501094E1,1.139639974E0,4.903325081E0,2.346317768E0
1.257998594E1,-8.619125932E-2,4.587290287E0,1.369483352E0
1.260498281E1,1.149216816E-1,6.828263283E0,-6.703764945E-2
1.262997813E1,6.512228847E-1,9.337387085E0,-9.768342972E-1
1.265000156E1,5.650315881E-1,1.049618053E1,-1.379060149E0
1.267503750E1,6.703764796E-1,7.297526836E0,-9.576806799E-3
1.269999375E1,3.064578176E-1,6.847416878E0,1.647210717E0
1.272499062E1,-2.968810201E-1,9.892841339E0,1.139639974E0
1.274998594E1,-1.053448766E-1,1.172201157E1,6.320692301E-1
1.277498281E1,1.235408068E0,1.268926907E1,1.522712231E0
1.279997969E1,2.212242365E0,1.272757626E1,1.963245392E0
1.282000156E1,6.895300746E-1,1.325430107E1,1.474828243E0
1.284499844E1,2.145204782E0,1.595495987E1,6.129156351E-1
1.286999375E1,3.859453201E0,1.550485039E1,-6.129156351E-1
1.289499219E1,2.279279947E0,1.244984913E1,-3.227383852E0
1.291998750E1,9.289502501E-1,1.066856289E1,-3.543418646E-1
1.294498281E1,8.619125932E-2,1.226788998E1,2.834734917E0
1.296998125E1,-7.852981687E-1,1.451843929E1,2.633621931E0
1.299497656E1,-2.691082716E0,1.321599293E1,2.719813108E0
1.301500000E1,-1.455674648E0,1.142513084E1,2.719813108E0
1.303999688E1,1.637633920E0,8.446743965E0,1.896207690E0
1.306499219E1,2.614468336E0,6.311115742E0,1.599326730E0
1.308998750E1,1.273715258E0,5.803544998E0,7.852981687E-1
1.311498438E1,-2.298433632E-1,4.845864296E0,7.469909191E-1
1.313998125E1,-1.944091797E0,3.313575268E0,1.264138460E0
1.316497813E1,-2.662352324E0,2.624045134E0,1.522712231E0
1.318500000E1,-2.011129379E0,2.853888512E0,1.608903527E0
1.320999688E1,-5.554547906E-1,3.878606796E0,2.576161146E0
1.323500312E1,-7.086837292E-1,4.338293552E0,4.491522312E0
1.325998906E1,-1.043871999E0,5.372588634E0,5.774814606E0
1.328498594E1,-2.403778553E0,9.251194954E0,8.753201485E0
1.330998281E1,-1.063025594E0,2.170104408E1,1.065898609E1
1.333497969E1,9.576806426E-2,2.333867836E1,5.114014626E0
1.335500156E1,-1.857900500E0,1.084094524E1,4.089296341E0
1.337999688E1,-3.859453201E0,4.146757126E0,7.335834026E0
1.340499375E1,-1.513135433E0,8.868123055E0,6.311115742E0
1.342999062E1,5.707777023E0,1.360864258E1,-3.715801001E0
1.345498750E1,5.650315881E-1,1.061110210E1,-4.635174274E0
1.347998281E1,-6.598419666E0,4.999093056E0,2.135627985E0
1.350498125E1,-2.375048161E0,6.617573261E0,6.042964935E0
1.352500313E1,-1.139639974E0,8.801085472E0,2.528276920E0
1.355000000E1,2.202665567E0,1.132936287E1,-2.135627985E0
1.357499531E1,3.332728863E0,1.260307789E1,-4.213795066E-1
1.359999219E1,1.321599364E0,9.289502144E0,1.388636947E0
1.362498906E1,-4.022258818E-1,5.391742229E0,2.279279947E0
1.364998438E1,2.873042040E-2,5.228936672E0,1.216254473E0
1.367498125E1,9.864110947E-1,7.086836815E0,-5.746084079E-2
1.369997813E1,1.465251446E0,9.787496567E0,-5.650315881E-1
1.371999844E1,7.278373241E-1,1.094629002E1,-4.118026793E-1
1.374499688E1,3.543418646E-1,8.542511940E0,2.365471363E0
1.376999219E1,1.139639974E0,8.398859978E0,2.892195702E0
1.379500000E1,1.340752989E-1,9.509769440E0,-4.501099288E-1
1.381998438E1,-6.799532771E-1,1.190397072E1,-5.458779931E-1
1.384498281E1,2.011129379E0,1.142513084E1,1.637633920E0
1.386997969E1,1.149216771E0,1.271799946E1,1.532289028E0
1.389000000E1,-7.565677166E-1,1.335964584E1,1.762132406E0
1.391499844E1,1.244984865E0,1.328303146E1,6.895300746E-1
1.393999375E1,4.012681961E0,1.936430359E1,-1.819593310E0
1.396499062E1,1.628057212E-1,1.219127464E1,-2.059013367E0
1.398998594E1,-8.236053586E-1,1.034295177E1,-1.580173135E0
1.401498438E1,6.416460276E-1,9.174580574E0,9.864110947E-1
1.403997969E1,2.470816135E0,1.180820274E1,1.915361404E0
1.406000156E1,1.130063176E0,1.395340729E1,3.131615877E0
1.408500000E1,-6.416460276E-1,1.277546024E1,3.064578056E0
1.410999531E1,4.022258818E-1,9.107542992E0,2.164358377E0
1.413499219E1,9.193734527E-1,7.163451672E0,1.608903527E0
1.415998906E1,8.140285611E-1,7.326257229E0,1.206677675E0
1.418498438E1,0.000000000E0,7.182605267E0,6.033388376E-1
1.420998125E1,-6.703764945E-2,4.836287498E0,1.742978811E0
1.423502188E1,-1.264138460E0,2.729389906E0,2.710236311E0
1.425997344E1,-1.829170108E0,1.934514999E0,2.652775526E0
1.427999531E1,-1.082179189E0,2.317587137E0,2.451662540E0
1.430499219E1,-4.788403511E-1,2.834734917E0,3.112462282E0
1.432998750E1,-6.799532771E-1,3.888183594E0,4.616020679E0
1.435498594E1,-1.302445769E0,5.114014626E0,5.544970989E0
1.437998125E1,-1.398213744E0,7.881711960E0,7.259219646E0
1.440497813E1,6.799532771E-1,1.758301735E1,8.379706383E0
1.442500000E1,-3.734954596E-1,2.134670258E1,3.552995205E0
1.444500469E1,-2.844311714E0,1.681687355E1,4.242525578E0
1.446998750E1,-4.635174274E0,1.233492756E1,8.188169479E0
1.449498438E1,-6.349422932E0,1.064940929E1,5.602431774E0
1.451997969E1,1.388636947E0,1.764047813E1,-1.561019540E0
1.454497812E1,8.236053586E-1,4.041412354E0,-4.213795185E0
1.456499844E1,-1.570596337E0,-1.599326730E0,-1.110909581E0
1.458999688E1,1.091755986E0,3.256114244E0,3.227383852E0
1.461499375E1,3.131615877E0,9.624691010E0,2.873041928E-1
1.463998906E1,2.489969730E-1,2.004425621E1,-1.599326730E0
1.466498594E1,-2.767697096E0,1.301488018E1,4.271255970E0
1.468998125E1,4.501099288E-1,5.372588634E0,3.476380825E0
1.471500469E1,1.561019540E0,3.926490784E0,1.877054095E0
1.473997500E1,1.264138460E0,5.679046631E0,6.703764796E-1
1.475999688E1,1.628057212E-1,7.929595947E0,-3.639186621E-1
1.478499375E1,1.819593310E-1,9.289502144E0,-4.788403511E-1
1.480999063E1,8.140285611E-1,8.599972725E0,9.385270476E-1
1.483502188E1,2.288856745E0,6.636727333E0,1.733402014E0
1.485998281E1,1.063025594E0,8.140285492E0,-3.447650373E-1
1.488497969E1,-2.566584110E0,1.067813969E1,-4.788403511E-1
1.490500156E1,-2.547430515E0,1.168370438E1,2.250549555E0
1.492999844E1,9.289502501E-1,1.201889229E1,2.317587137E0
1.495501094E1,3.351882458E0,1.252646351E1,4.213795066E-1
1.497999063E1,1.608903527E0,1.361821938E1,2.298433632E-1
1.500498906E1,2.327163935E0,1.694137192E1,-5.746083856E-1
1.502998281E1,2.518700123E0,1.380017853E1,-2.030282974E0
1.505498125E1,4.309563041E-1,1.316810894E1,-2.748543501E0
1.507997812E1,0.000000000E0,1.440351772E1,-1.752555609E0
1.510000000E1,-1.283292055E0,1.514093113E1,1.417367458E0
1.512499531E1,-9.289502501E-1,1.394383049E1,2.911349297E0
1.514999219E1,-2.595314741E0,1.259350109E1,1.474828243E0
1.517498906E1,7.374141216E-1,9.404424667E0,1.407790542E0
1.519998594E1,2.145204782E0,6.282385349E0,1.254561663E0
1.522498125E1,2.039859772E0,5.736507416E0,1.819593310E-1
1.524997812E1,8.427590132E-1,6.311115742E0,-7.469909191E-1
1.527000000E1,-1.053448766E-1,5.410895824E0,-3.734954596E-1
1.529499688E1,-1.264138460E0,3.955221176E0,1.302445769E0
1.531500000E1,-1.800439715E0,3.131615877E0,2.480392933E0
1.533998438E1,-1.838746905E0,3.074155092E0,2.509123325E0
1.536498125E1,-1.666364431E0,3.581725836E0,2.461239338E0
1.538997656E1,-2.068590164E0,4.271255970E0,3.725377798E0
1.541000000E1,-1.800439715E0,7.029376030E0,7.029376030E0
1.543001250E1,-1.110909581E0,8.695740700E0,9.040505409E0
1.545498750E1,6.799532771E-1,1.497812557E1,1.035252857E1
1.547998281E1,-1.149216816E-1,2.562753487E1,4.491522312E0
1.550497969E1,-3.629609823E0,1.069729328E1,5.592854977E0
1.552500156E1,-4.146757126E0,3.246537447E0,9.145850182E0
1.554999844E1,-3.610456228E0,1.265096188E1,9.289502144E0
1.557499531E1,3.993528366E0,1.863646698E1,-5.353435040E0
1.559999062E1,2.135627985E0,8.465897560E0,-6.033388138E0
1.562498750E1,-7.182605267E-1,3.677493811E0,2.011129409E-1
1.564998438E1,-2.011129409E-1,5.995080948E0,4.788403511E0
1.567498125E1,-2.499546528E0,7.862558365E0,1.656787634E0
1.569498438E1,-2.279279947E0,1.256477070E1,-1.474828243E0
1.571499375E1,-3.447650373E-1,1.493981838E1,-2.030282974E0
1.573999062E1,2.470816135E0,1.052491093E1,6.703764796E-1
1.576498594E1,4.501099288E-1,4.922478676E0,2.442085743E0
1.578998281E1,1.723825186E-1,3.505111217E0,1.599326730E0
1.581498125E1,8.906430602E-1,6.847416878E0,-3.351882398E-1
1.583500156E1,1.522712231E0,9.126696587E0,-9.289502501E-1
1.585999844E1,0.000000000E0,1.131020927E1,-1.877054095E0
1.588499531E1,-4.596867263E-1,8.561665535E0,2.327163935E0
1.590999219E1,1.561019540E0,8.667010307E0,3.390189648E0
1.593498906E1,-9.481038451E-1,8.954314232E0,4.979939461E-1
1.595998438E1,-7.469909191E-1,1.160709000E1,3.830722570E-1
1.598498125E1,2.480392933E0,1.169328117E1,7.852981687E-1
1.600997656E1,1.561019540E0,1.289038181E1,9.193734527E-1
1.603000000E1,4.788403213E-2,1.295741940E1,9.097966552E-1
1.605499688E1,2.652775526E0,1.636676216E1,9.289502501E-1
1.607999375E1,3.332728863E0,1.333091545E1,-1.312022567E0
1.610498906E1,2.997540474E0,1.325430107E1,-2.873042107E0
1.612998438E1,1.340752959E0,1.387679291E1,-1.647210717E0
1.615499844E1,-2.193088770E0,1.425028896E1,-3.160346150E-1
1.617997812E1,-1.120486379E0,1.315853214E1,2.078166962E0
1.620000156E1,-2.145204782E0,1.261265469E1,2.049436569E0
1.622499844E1,-1.244984865E0,1.016099167E1,9.002198577E-1
1.624999375E1,6.416460276E-1,7.010222435E0,1.225831270E0
1.627498906E1,2.298433542E0,5.841852188E0,1.388636947E0
1.629998594E1,1.244984865E0,6.617573261E0,2.106897533E-1
1.632498281E1,3.639186621E-1,6.167463779E0,-6.033388376E-1
1.634997969E1,-1.398213744E0,4.501099110E0,1.225831270E0
1.637000156E1,-2.738966703E0,3.648763418E0,2.729389906E0
1.639499688E1,-3.246537447E0,3.380612850E0,2.959233284E0
1.641999531E1,-1.618480325E0,3.658340216E0,2.681505919E0
1.644499219E1,-1.570596337E0,3.744531393E0,3.332728863E0
1.646998750E1,-2.135627985E0,4.376600742E0,5.449203014E0
1.649498438E1,-2.097320795E0,6.991068840E0,7.958326340E0
1.651997969E1,8.810662031E-1,2.156696892E1,1.122401714E1
1.654497656E1,-1.254561663E0,2.510081100E1,3.725377798E0
1.656499844E1,-5.142745018E0,1.267969227E1,4.548983097E0
1.658999531E1,-4.156333923E0,8.963891029E0,9.940725327E0
1.661499219E1,-4.596867263E-1,1.875138855E1,2.126051188E0
1.663500781E1,5.046977043E0,1.066856289E1,-2.815581083E0
1.665997969E1,1.283292055E0,-1.235408068E0,-5.956773758E0
1.668000156E1,-1.379060149E0,0.000000000E0,-1.915361285E-1
1.670499844E1,1.206677675E0,8.963891029E0,4.453215122E0
1.672999531E1,-1.982398987E0,1.670195198E1,-3.639186621E-1
1.675501250E1,-3.428496838E0,1.567723274E1,-5.650315881E-1
1.677998750E1,2.240972757E0,8.456320763E0,1.503558636E0
1.680498438E1,2.738966703E0,6.167463779E0,5.841852427E-1
1.682998125E1,8.810662031E-1,4.338293552E0,1.321599364E0
1.685497813E1,-3.447650373E-1,5.525817394E0,8.906430602E-1
1.687499844E1,-7.182605267E-1,7.977479935E0,1.436520964E-1
1.689999531E1,8.619125932E-2,1.063983250E1,-5.841852427E-1
1.692499375E1,1.302445769E0,9.873687744E0,1.149216816E-1
1.694998906E1,1.810016513E0,7.661445618E0,2.547430515E0
1.697498594E1,1.455674648E0,9.404424667E0,2.662352324E0
1.699998125E1,-3.830722719E-2,1.017056847E1,-3.543418646E-1
1.702497969E1,-7.565677166E-1,1.163582039E1,1.436520964E-1
1.704500156E1,1.685518026E0,1.125274754E1,8.906430602E-1
1.706999688E1,2.250549555E0,1.261265469E1,1.695094824E0
1.709499375E1,-6.512228847E-1,1.240196514E1,1.656787634E0
1.711501250E1,9.289502501E-1,1.490151119E1,1.637633920E0
1.713998125E1,2.585737944E0,1.440351772E1,-5.650315881E-1
1.716497812E1,2.461239338E0,1.153047562E1,-1.924938202E0
1.718500000E1,2.968810081E0,1.152089882E1,-6.224924326E-1
1.720999688E1,2.240972757E0,1.456632328E1,-1.628057212E-1
1.723500156E1,2.011129409E-1,1.510262394E1,8.906430602E-1
1.725998906E1,-2.059013367E0,1.317768574E1,2.164358377E0
1.728498594E1,-1.168370485E0,1.075475407E1,2.604891539E0
1.730998125E1,3.447650373E-1,7.680599213E0,1.790862918E0
1.733497813E1,1.015141487E0,5.640739441E0,6.129156351E-1
1.735500156E1,6.129156351E-1,6.110002518E0,-8.331822157E-1
1.737999688E1,1.532289088E-1,6.330269337E0,-1.350329757E0
1.740499375E1,-3.639186621E-1,4.788403511E0,-3.256114423E-1
1.743000000E1,-1.886630893E0,3.294421434E0,2.604891539E0
1.745498594E1,-2.346317768E0,3.131615877E0,3.160346270E0
1.747500938E1,-2.461239338E0,3.620033026E0,3.294421434E0
1.749997344E1,-1.877054095E0,4.797980309E0,4.884171486E0
1.751999531E1,-1.283292055E0,5.765237808E0,5.889736176E0
1.754500781E1,-1.053448796E0,7.728483200E0,8.207323074E0
1.756998906E1,-2.489969730E-1,1.522712326E1,9.222464561E0
1.759498594E1,1.723825186E-1,2.280237770E1,3.792415380E0
1.761998125E1,-1.877054095E0,1.215296745E1,4.932055473E0
1.764497969E1,-4.060565948E0,5.363011837E0,9.346963882E0
1.766500156E1,-2.624045134E0,1.254561710E1,9.088389397E0
1.768999688E1,3.849876404E0,1.783201408E1,-7.948749661E-1
1.771499375E1,2.853888512E0,7.575253963E0,-6.167463779E0
1.773999062E1,-6.435614109E0,1.628057212E-1,-1.723825216E0
1.776498750E1,-2.700659513E0,3.945644379E0,6.560112476E0
1.778998281E1,4.405331016E-1,1.020887566E1,2.604891539E0
1.781497969E1,-2.298433632E-1,1.538992882E1,-4.089296341E0
1.783504219E1,2.394201756E-1,1.370441055E1,-6.416460276E-1
1.785999844E1,1.426944256E0,8.848969460E0,2.212242365E0
1.788499531E1,1.254561663E0,4.692635536E0,1.513135433E0
1.790999219E1,1.589749932E0,4.663905144E0,6.224924326E-1
1.793498750E1,1.302445769E0,6.301538944E0,-3.639186621E-1
1.795499219E1,8.236053586E-1,9.174580574E0,-1.254561663E0
1.797500156E1,-2.298433632E-1,1.199973869E1,-1.187524080E0
1.799999688E1,-9.576806799E-3,1.039083576E1,2.202665567E0
1.802499375E1,2.585737705E-1,8.810662270E0,4.769249916E0
1.804999062E1,-7.374141216E-1,7.479485989E0,-1.130063176E0
1.807498906E1,-1.991975784E0,8.983044624E0,-7.661445439E-2
1.809998281E1,1.599326730E0,1.203804588E1,1.312022567E0
1.812498125E1,3.620033026E0,1.278503704E1,1.206677675E0
1.814500313E1,1.455674648E0,1.239238834E1,1.618480325E0
1.816999844E1,2.671929121E0,1.457590008E1,1.168370485E0
1.819501719E1,3.696647406E0,1.729571342E1,-5.746083856E-1
1.821999219E1,1.829170108E0,1.425986576E1,-2.911349297E0
1.824498750E1,-2.873041928E-1,1.186566353E1,-2.059013367E0
1.826998438E1,9.576806799E-3,1.129105568E1,-6.895300746E-1
1.829498125E1,-1.407790542E0,1.420240402E1,7.948749661E-1
1.831499219E1,-2.480392933E0,1.553358078E1,3.074155092E0
1.833499375E1,-3.409343243E0,1.450886250E1,2.279279947E0
1.835999063E1,-7.278373241E-1,9.902418137E0,7.469909191E-1
1.838498594E1,1.321599364E0,6.540958881E0,1.254561663E0
1.840998281E1,1.532289028E0,5.573701382E0,-1.244984865E-1
1.843001563E1,1.321599364E0,5.583278179E0,-3.064578176E-1
1.845500312E1,2.968810201E-1,4.635174274E0,-2.202665508E-1
1.847999844E1,-1.110909581E0,3.141192675E0,9.864110947E-1
1.850499531E1,-2.193088770E0,2.700659513E0,2.001552582E0
1.852501250E1,-1.963245392E0,3.141192675E0,2.518700123E0
1.854998281E1,-1.484405041E0,3.983951569E0,3.351882458E0
1.857497812E1,-1.685518026E0,4.807557106E0,4.347870350E0
1.859500156E1,-1.484405041E0,6.167463779E0,5.085284233E0
1.861999844E1,-1.455674648E0,1.086967564E1,8.762778282E0
1.864499375E1,1.915361404E0,2.557007408E1,1.099417400E1
1.866998906E1,-3.457227230E0,1.786074448E1,2.212242365E0
1.869498750E1,-4.453215122E0,6.627150536E0,7.153874874E0
1.871998281E1,-2.882618904E0,1.022802925E1,9.844957352E0
1.874498125E1,3.859453201E0,1.867477417E1,-1.254561663E0
1.876500156E1,6.062118530E0,9.203310966E0,-4.750096321E0
1.878999844E1,-3.744531393E0,1.829170108E0,-4.568136692E0
1.881499531E1,-2.595314741E0,3.859453201E0,4.874594688E0
1.883999219E1,-1.005564690E0,8.848969460E0,4.481945515E0
1.886498750E1,-6.129156351E-1,1.551442719E1,-2.193088770E0
1.888998438E1,6.895300746E-1,1.336922264E1,-1.283292055E0
1.891497969E1,1.810016513E0,8.350975990E0,1.321599364E0
1.893997812E1,6.129156351E-1,5.410895824E0,2.097320795E0
1.896000000E1,3.830722719E-2,4.807557106E0,2.116474390E0
1.898499688E1,2.106897533E-1,6.464344501E0,6.416460276E-1
1.900999219E1,5.554547906E-1,8.944737434E0,-3.830722570E-1
1.903498906E1,4.309563041E-1,1.018972206E1,-7.278373241E-1
1.905998594E1,8.331822157E-1,8.274360657E0,7.757213712E-1
1.908498281E1,1.254561663E0,7.977479935E0,2.173935175E0
1.910997812E1,2.968810201E-1,9.385271072E0,5.650315881E-1
1.913000000E1,-1.149216771E0,1.048660374E1,9.289502501E-1
1.915500000E1,9.576806426E-2,1.230619717E1,1.589749932E0
1.917999375E1,3.208230257E0,1.355118179E1,1.216254473E0
1.920499062E1,7.757213712E-1,1.351287460E1,1.206677675E0
1.922998594E1,2.375048161E0,1.580173111E1,1.896207690E0
1.925498281E1,3.428496838E0,1.461420727E1,-2.777273953E-1
1.927997812E1,2.030282974E0,1.207635307E1,-2.173935175E0
1.930000156E1,1.819593310E0,1.231577396E1,-1.771709204E0
1.932499844E1,-1.101332784E0,1.516008472E1,-5.746083856E-1
1.934999531E1,-1.589749932E0,1.351287460E1,1.867477298E0
1.937499219E1,-1.608903527E0,1.239238834E1,2.480392933E0
1.939998750E1,1.436520964E-1,9.835380554E0,1.752555609E0
1.942498438E1,1.896207690E0,5.391742229E0,2.585737705E-1
1.944997969E1,1.426944256E0,5.391742229E0,-2.968810201E-1
1.947497812E1,9.002198577E-1,5.908889771E0,-8.140285611E-1
1.949500000E1,2.298433632E-1,5.334281445E0,-4.788403511E-1
1.951501719E1,-1.321599364E0,4.280832767E0,9.097966552E-1
1.953998750E1,-2.671929121E0,3.648763418E0,2.806004286E0
1.956498438E1,-3.055001259E0,4.070142746E0,3.160346270E0
1.958997813E1,-1.953668594E0,5.085284233E0,3.169923067E0
1.961000156E1,-2.059013367E0,5.736507416E0,4.118026733E0
1.963501875E1,-2.269703150E0,5.975927353E0,5.784391403E0
1.965999531E1,-3.189076662E0,8.370129585E0,8.896853447E0
1.968499219E1,1.714248419E0,2.176808167E1,7.029376030E0
1.970998750E1,7.086837292E-1,2.098278427E1,1.149216771E0
1.973498594E1,-3.035847664E0,6.876147270E0,8.772355080E0
1.975997969E1,-2.968810081E0,8.542511940E0,1.350329781E1
1.978497813E1,3.045424461E0,1.582088470E1,-4.884171486E-1
1.980500000E1,5.219359875E0,1.336922264E1,-8.686163902E0
1.982999531E1,-4.922478676E0,4.434061527E0,-4.979939461E0
1.985499375E1,-6.588842869E0,2.442085743E0,4.730942726E0
1.987998906E1,-1.991975784E0,7.527369976E0,6.081272125E0
1.990498594E1,-2.489969730E-1,1.351287460E1,-3.399766445E0
1.992998125E1,2.250549555E0,1.548569679E1,-3.476380825E0
1.995497812E1,2.901772499E0,9.854534149E0,5.937620401E-1
1.997500000E1,6.320692301E-1,4.357447147E0,2.269703150E0
1.999503750E1,6.607996821E-1,3.026270866E0,1.810016513E0
2.001998750E1,1.561019540E0,5.899312973E0,9.385270476E-1
2.004498438E1,2.068590164E0,9.366117477E0,-4.692635238E-1
2.006998125E1,1.130063176E0,1.095586681E1,-8.044517636E-1
2.009497656E1,2.873042040E-2,8.561665535E0,7.182605267E-1
2.011502031E1,-1.312022567E0,7.632715225E0,2.576161146E0
2.013999531E1,-1.561019540E0,8.705317497E0,2.528276920E0
2.016499219E1,-4.788403511E-1,1.083136845E1,1.350329757E0
2.018998906E1,3.131615877E0,1.204762268E1,4.309563041E-1
2.021498594E1,3.840299606E0,1.225831223E1,-1.340752989E-1
2.023998438E1,6.703764945E-2,1.398213768E1,3.543418646E-1
2.026497969E1,-4.309563041E-1,1.575384712E1,1.321599364E0
2.028500156E1,2.633621931E0,1.457590008E1,1.149216816E-1
2.030999688E1,2.480392933E0,1.273715305E1,-2.059013367E0
2.033499531E1,1.704671621E0,1.123359394E1,-7.757213712E-1
2.035499844E1,1.235408068E0,1.194227791E1,3.734954596E-1
2.037997969E1,1.723825186E-1,1.531331444E1,1.493981838E0
2.040497656E1,-2.231395960E0,1.395340729E1,3.236960649E0
2.042500000E1,-5.075707436E-1,1.083136845E1,1.532289028E0
2.044999688E1,8.427590132E-1,9.050082207E0,8.523358107E-1
2.047499688E1,2.509123325E0,6.196194172E0,1.264138460E0
2.049998906E1,1.273715258E0,5.928043365E0,5.267243981E-1
2.052498438E1,2.777273953E-1,6.215347767E0,-8.236053586E-1
2.054998125E1,-6.512228847E-1,4.903325081E0,2.585737705E-1
2.057497969E1,-1.752555609E0,3.332728863E0,2.327163935E0
2.059501406E1,-1.982398987E0,2.987963676E0,3.217807055E0
2.061999688E1,-1.810016513E0,3.380612850E0,3.371036053E0
2.064499375E1,-1.790862918E0,4.185064793E0,3.801992416E0
2.066999062E1,-1.848323703E0,4.826710701E0,5.353435040E0
2.069498750E1,-5.267243981E-1,6.924031258E0,7.671022415E0
2.071499844E1,-5.746084079E-2,1.245942593E1,1.030464458E1
2.073500000E1,2.202665567E0,2.760993385E1,7.728483200E0
2.075999688E1,-4.711789131E0,1.747767258E1,2.576161146E0
2.078499375E1,-5.947196960E0,5.564124584E0,1.021845245E1
2.080998906E1,-4.089296341E0,1.260307789E1,8.082824707E0
2.083500938E1,4.616020679E0,1.442267132E1,-1.541865945E0
2.085998125E1,4.453215122E0,3.074155092E0,-7.326257229E0
2.088497969E1,-3.505111217E0,3.083731890E0,-4.022258818E-1
2.090500156E1,-1.417367458E0,8.896853447E0,5.688623428E0
2.092999688E1,-3.878606796E0,1.354160500E1,1.752555609E0
2.095499219E1,-3.878606796E0,1.437478733E1,-1.781286120E0
2.097999063E1,1.417367458E0,9.107542992E0,4.405331016E-1
2.100498750E1,2.547430515E0,6.809109688E0,1.628057212E-1
2.102998125E1,1.829170108E0,4.644751072E0,1.407790542E0
2.105498125E1,1.666364431E0,5.046977043E0,1.130063176E0
2.107500313E1,2.011129379E0,6.933608055E0,3.830722570E-1
2.109999844E1,1.225831270E0,1.088882923E1,-1.905784607E0
2.112499531E1,3.543418646E-1,1.064940929E1,-3.064578176E-1
2.114999062E1,9.768342972E-1,8.015787125E0,3.236960649E0
2.117498750E1,4.213795066E-1,8.714894295E0,2.853888512E0
2.119499531E1,-2.039859772E0,1.009395409E1,1.331176162E0
2.121500000E1,-2.097320795E0,1.062067890E1,8.140285611E-1
2.123999688E1,1.848323703E0,1.151132202E1,3.351882398E-1
2.126499375E1,4.060565948E0,1.266053867E1,1.637633920E0
2.128999062E1,1.637633920E0,1.312022495E1,2.336740971E0
2.131498906E1,2.557007313E0,1.577300072E1,1.810016513E0
2.133998281E1,3.323152065E0,1.486320400E1,-1.474828243E0
2.136497969E1,1.972822189E0,1.211466026E1,-4.721365929E0
2.138500312E1,7.374141216E-1,1.111867237E1,-2.470816135E0
2.140999844E1,-1.187524080E0,1.479616642E1,2.968810081E0
2.143499375E1,-1.130063176E0,1.451843929E1,2.317587137E0
2.145999219E1,-2.873042107E0,1.300530338E1,1.733402014E0
2.148498750E1,-6.895300746E-1,1.021845245E1,1.685518026E0
2.150998438E1,1.149216771E0,7.718906403E0,1.685518026E0
2.153498125E1,2.145204782E0,6.569689274E0,1.053448796E0
2.155997812E1,1.283292055E0,6.828263283E0,3.256114423E-1
2.158000000E1,2.968810201E-1,6.110002518E0,-1.053448766E-1
2.160499688E1,-7.278373241E-1,3.849876404E0,5.554547906E-1
2.162999219E1,-1.312022567E0,2.614468336E0,1.762132406E0
2.165498750E1,-1.589749932E0,2.662352324E0,2.288856745E0
2.167998438E1,-1.695094824E0,2.806004286E0,1.982398987E0
2.170498281E1,-2.365471363E0,3.026270866E0,2.968810081E0
2.172997813E1,-2.844311714E0,5.822698593E0,6.234501362E0
2.175000000E1,-1.561019540E0,1.265096188E1,1.200931549E1
2.177499688E1,1.436521053E0,2.896026421E1,1.021845245E1
2.179999375E1,-3.418920040E0,1.653914452E1,3.466804028E0
2.182499062E1,-5.228936672E0,5.631162167E0,7.498639584E0
2.184998594E1,-4.127603531E0,1.208592987E1,1.009395409E1
2.187498281E1,3.629609823E0,1.982398987E1,-2.394201756E-1
2.189997969E1,3.332728863E0,6.378153324E0,-5.439626217E0
2.192000312E1,-3.438073635E0,7.757213712E-1,-2.949656487E0
2.194499844E1,-9.959878922E-1,2.863465309E0,4.568136692E0
2.196999375E1,2.202665508E-1,9.366117477E0,2.633621931E0
2.199499062E1,-1.379060149E0,1.622311020E1,-3.217807055E0
2.201998750E1,-1.465251446E0,1.470997524E1,-8.331822157E-1
2.204498281E1,2.298433542E0,8.370129585E0,1.599326730E0
2.206998125E1,9.097966552E-1,5.008669853E0,1.312022567E0
2.209497812E1,3.830722570E-1,3.543418407E0,1.474828243E0
2.211500000E1,-4.213795066E-1,5.420472622E0,4.213795066E-1
2.213999531E1,4.596867263E-1,8.599972725E0,-3.830722570E-1
2.216499219E1,7.948749661E-1,1.177947235E1,-1.455674648E0
2.218998906E1,7.374141216E-1,9.289502144E0,1.407790542E0
2.221498594E1,1.513135433E0,8.216899872E0,4.960785866E0
2.223998125E1,8.331822157E-1,8.504204750E0,1.244984865E-1
2.226497813E1,-1.733402014E0,1.204762268E1,1.589749932E0
2.228500156E1,1.034295082E0,1.280419064E1,2.164358377E0
2.230999688E1,3.342305660E0,1.222958183E1,1.637633920E0
2.233499375E1,1.714248419E0,1.406832886E1,1.417367458E0
2.235999063E1,2.020706177E0,1.555273438E1,7.948749661E-1
2.238498594E1,2.940079689E0,1.484405041E1,-9.385270476E-1
2.240998281E1,1.244984865E-1,1.199016190E1,-3.466804028E0
2.243497812E1,1.244984865E-1,1.121444035E1,-2.681505919E0
2.245500156E1,-6.416460276E-1,1.240196514E1,3.256114423E-1
2.247999844E1,-6.416460276E-1,1.368525696E1,2.221819162E0
2.250499531E1,-3.026270866E0,1.289995861E1,1.982398987E0
2.252999062E1,-1.541865945E0,1.042914295E1,1.350329757E0
2.255498594E1,6.224924326E-1,7.173028469E0,1.513135433E0
2.257998438E1,1.561019540E0,5.200206280E0,1.398213744E0
2.260498125E1,5.746083856E-1,5.841852188E0,6.033388376E-1
2.262997656E1,3.447650373E-1,5.880159378E0,-3.830722570E-1
2.265000000E1,9.576806426E-2,4.625597477E0,-1.628057212E-1
2.267499688E1,-1.139639974E0,3.122039080E0,1.283292055E0
2.269999062E1,-1.570596337E0,2.710236311E0,2.796427488E0
2.272499062E1,-1.762132406E0,3.217807055E0,4.165910721E0
2.274998438E1,-2.844311714E0,4.951209068E0,6.014234543E0
2.277498125E1,-2.231395960E0,8.044517517E0,6.435614109E0
2.279997813E1,-8.331822157E-1,1.404917526E1,9.059659004E0
2.282000000E1,1.312022567E0,2.598187637E1,5.889736176E0
2.284500000E1,-3.840299606E0,1.670195198E1,2.959233284E0
2.286999375E1,-3.869029999E0,3.658340216E0,9.165003777E0
2.289502500E1,-2.729389906E0,6.253654957E0,8.935160637E0
2.291998594E1,2.614468336E0,1.944091797E1,-2.145204782E0
2.294498281E1,1.005564690E0,1.391510010E1,-8.025363922E0
2.296997812E1,-3.888183594E0,3.677493811E0,-4.118026793E-1
2.299000156E1,-8.523358107E-1,3.284844637E0,5.583278179E0
2.301499844E1,1.762132406E0,7.910442352E0,5.209783077E0
2.303999375E1,-9.289502501E-1,1.258392429E1,-2.834734917E0
2.306499219E1,-2.087743998E0,1.331176186E1,-1.589749932E0
2.308998750E1,1.216254473E0,9.136273384E0,8.140285611E-1
2.311500312E1,8.236053586E-1,4.922478676E0,3.447650373E-1
2.313997969E1,8.906430602E-1,3.706224203E0,-1.053448766E-1
2.316000156E1,9.672574997E-1,6.004657745E0,-2.202665508E-1
2.318499844E1,1.829170108E0,9.327810287E0,4.213795066E-1
2.320999531E1,4.022258818E-1,1.164539719E1,2.968810201E-1
2.323501250E1,-2.298433632E-1,8.571242332E0,2.240972757E0
2.325998750E1,1.168370485E0,8.667010307E0,3.658340216E0
2.328498438E1,-6.320692301E-1,1.051533413E1,-9.002198577E-1
2.330998125E1,-1.944091797E0,1.244984913E1,-5.746084079E-2
2.333497813E1,2.863465309E0,1.341710663E1,2.193088770E0
2.335499844E1,2.700659513E0,1.471955204E1,1.340752959E0
2.337999688E1,1.656787634E0,1.558146477E1,2.154781580E0
2.340499375E1,2.489969730E0,1.699883270E1,2.394201756E-1
2.342998906E1,2.537853718E0,1.361821938E1,-2.537853718E0
2.345498438E1,1.340752959E0,1.093671322E1,-2.221819162E0
2.347499531E1,1.063025594E0,9.241618156E0,-2.777273953E-1
2.349500000E1,2.298433632E-1,1.195185471E1,2.126051188E0
2.351999531E1,-1.896207690E0,1.401086807E1,2.652775526E0
2.354501250E1,-2.336740971E0,1.216254425E1,2.461239338E0
2.356998906E1,-2.298433632E-1,8.944737434E0,1.953668594E0
2.359498438E1,2.020706177E0,6.291962147E0,1.781286120E0
2.361998125E1,1.857900500E0,5.851428986E0,9.576807022E-1
2.364497812E1,5.363011956E-1,6.167463779E0,-3.064578176E-1
2.366500000E1,-7.661445439E-2,5.343858242E0,-3.160346150E-1
2.368999688E1,-2.001552582E0,3.658340216E0,2.049436569E0
2.371503906E1,-2.710236311E0,2.499546528E0,3.189076662E0
2.373998906E1,-1.264138460E0,3.112462282E0,2.968810081E0
2.376498594E1,-1.235408068E0,3.754108191E0,3.533841610E0
2.378998125E1,-1.675941229E0,4.635174274E0,5.238513470E0
2.381497969E1,-2.413355350E0,7.910442352E0,7.843404770E0
2.383502500E1,-1.781286120E0,1.538992882E1,1.205719948E1
2.385999844E1,-5.650315881E-1,2.829946327E1,6.320692539E0
2.388499531E1,-3.620033026E0,1.124317074E1,4.922478676E0
2.390999063E1,-3.476380825E0,6.991068721E-1,8.686163902E0
2.393498750E1,-1.436521053E0,6.981492043E0,8.973467827E0
2.395501719E1,4.702212334E0,1.556231117E1,-1.254561663E0
2.397997344E1,2.365471363E0,1.654872131E1,-8.216899872E0
2.399999688E1,-7.345410824E0,8.312667847E0,-7.852981687E-1
2.402499375E1,-4.654327869E0,1.953668594E0,6.847416878E0
2.404998906E1,-1.838746905E0,4.596867085E0,4.999093056E0
2.407500938E1,1.244984865E0,9.979032516E0,-3.371036053E0
2.409998281E1,3.687070608E0,1.551442719E1,-4.836287498E0
2.412498281E1,2.614468336E0,1.071644688E1,1.225831270E0
2.414500156E1,2.298433632E-1,6.416460514E0,3.313575268E0
2.416999844E1,-5.458779931E-1,4.242525578E0,2.470816135E0
2.419499375E1,6.703764796E-1,5.477933407E0,-2.873041928E-1
2.421999062E1,1.283292055E0,8.207323074E0,-6.512228847E-1
2.424498594E1,-6.416460276E-1,1.186566353E1,-2.681505978E-1
2.426998281E1,-9.959878922E-1,1.103248119E1,2.729389906E0
2.429497969E1,1.685518026E0,8.475474358E0,6.263231754E0
2.431500469E1,2.710236311E0,6.847416878E0,1.819593310E-1
2.433999844E1,-1.924938202E0,1.116655636E1,-1.561019540E0
2.436499531E1,8.523358107E-1,1.259350109E1,8.714894056E-1
2.438999063E1,2.940079689E0,1.322556973E1,3.102885485E0
2.441498750E1,1.628057212E-1,1.240196514E1,2.308010340E0
2.443500156E1,1.053448796E0,1.305318737E1,1.934514999E0
2.445500156E1,3.007117271E0,1.485362720E1,-4.884171486E-1
2.447999844E1,2.997540474E0,1.222000504E1,-3.476380825E0
2.450499531E1,1.264138460E0,1.185608673E1,-1.541865945E0
2.452501406E1,1.235408068E0,1.344583702E1,1.628057212E-1
2.454998125E1,-4.213795066E-1,1.425028896E1,1.101332784E0
2.457497812E1,-9.768342972E-1,1.256477070E1,3.323152065E0
2.459500000E1,-1.580173135E0,1.233492756E1,3.351882458E0
2.461999688E1,0.000000000E0,1.037168217E1,1.541865945E0
2.464500469E1,1.168370485E0,7.642292023E0,1.800439715E0
2.466999062E1,1.091755986E0,6.167463779E0,6.224924326E-1
2.469498750E1,6.607996821E-1,5.889736176E0,-1.024718285E0
2.471998125E1,2.011129409E-1,4.252102375E0,-5.937620401E-1
2.474497969E1,-1.561019540E0,2.930502892E0,1.331176162E0
2.476500156E1,-2.738966703E0,2.528276920E0,2.518700123E0
2.478999844E1,-2.815581083E0,3.313575268E0,2.614468336E0
2.481499531E1,-1.474828243E0,4.395754337E0,3.466804028E0
2.483999063E1,-1.503558636E0,5.544970989E0,5.133168221E0
2.486498750E1,-1.723825216E0,7.297526836E0,7.105990410E0
2.488998281E1,-2.231395960E0,1.313937855E1,9.461885452E0
2.491498125E1,-2.011129379E0,2.479435349E1,8.236053467E0
2.493500312E1,-4.204218388E0,1.838746834E1,2.384624958E0
2.495999844E1,-3.093308687E0,6.483498096E0,7.230489254E0
2.498499688E1,-3.246537447E0,1.474828243E0,8.370129585E0
2.500999219E1,1.618480325E0,1.036210537E1,7.182605267E0
2.503498750E1,7.766790390E0,1.957499313E1,-7.335834026E0
2.505998438E1,-6.253654957E0,1.380017853E1,-6.607996464E0
2.508498125E1,-2.968810081E0,4.654327869E0,6.244078159E0
2.510997656E1,-1.838746905E0,3.236960649E0,5.765237808E0
2.513000000E1,-1.130063176E0,5.861005783E0,2.030282974E0
2.515499531E1,1.465251446E0,1.166455078E1,-3.064578056E0
2.517999219E1,2.882618904E0,1.563892555E1,-2.719813108E0
2.520498906E1,1.110909581E0,1.042914295E1,1.886630893E0
2.522998438E1,-6.033388376E-1,4.328716755E0,3.045424461E0
2.525498125E1,1.340752989E-1,3.964797974E0,1.292868972E0
2.527500312E1,1.053448796E0,7.067683220E0,-4.884171486E-1
2.530000000E1,1.340752959E0,9.002198219E0,-5.267243981E-1
2.532499844E1,9.002198577E-1,8.916007042E0,-4.979939461E-1
2.534999375E1,9.768342972E-1,7.910442352E0,1.101332784E0
2.537499063E1,-5.746083856E-1,1.003649330E1,1.091755986E0
2.539998594E1,-2.375048161E0,1.210508347E1,4.788403511E-1
2.542498438E1,-2.777273953E-1,1.253604031E1,1.244984865E0
2.544997969E1,2.020706177E0,1.237323475E1,2.154781580E0
2.547000156E1,1.637633920E0,1.363737297E1,1.426944256E0
2.549499688E1,1.063025594E0,1.562934875E1,2.260126352E0
2.551999531E1,2.087743998E0,1.474828243E1,4.022258818E-1
2.554499219E1,2.806004286E0,1.225831223E1,-6.320692301E-1
2.556998750E1,2.231395960E0,1.144428444E1,-2.585737944E0
2.559499688E1,2.183511972E0,1.096544361E1,9.289502501E-1
2.561998125E1,1.446097851E0,1.353202820E1,1.264138460E0
2.564497656E1,-1.043871999E0,1.447055531E1,2.231395960E0
2.566500000E1,-2.528276920E0,1.271799946E1,2.087743998E0
2.568999531E1,-7.948749661E-1,9.634267807E0,1.685518026E0
2.571499375E1,7.086837292E-1,6.904877663E0,1.302445769E0
2.573998750E1,1.177947283E0,5.880159378E0,7.469909191E-1
2.576498594E1,1.139639974E0,6.167463779E0,7.661445439E-2
2.578998125E1,8.523358107E-1,4.663905144E0,-2.873042040E-2
2.581497813E1,-1.005564690E0,3.045424461E0,1.254561663E0
2.583500156E1,-1.953668594E0,2.710236311E0,1.953668594E0
2.585999688E1,-1.972822189E0,3.552995205E0,2.614468336E0
2.588499375E1,-1.666364431E0,4.424484730E0,3.773261786E0
2.590999063E1,-2.183511972E0,5.295974255E0,5.573701382E0
2.593498594E1,-2.758120298E0,6.320692539E0,6.837840080E0
2.595998125E1,-2.288856745E0,9.844957352E0,1.123359394E1
2.598497969E1,4.319139957E0,2.556049728E1,9.222464561E0
2.600500312E1,-9.864110947E-1,2.277364731E1,1.685518026E0
2.602999844E1,-3.916913986E0,9.318233490E0,6.579266071E0
2.605499531E1,-3.524264812E0,6.100425720E0,1.002691650E1
2.607999219E1,-3.926490843E-1,1.717121506E1,2.279279947E0
2.610498750E1,3.667917013E0,1.063983250E1,-4.414907932E0
2.612998281E1,-3.045424461E0,1.206677675E0,-3.840299606E0
2.615498281E1,-5.382165432E0,1.742978811E0,4.194641590E0
2.617997656E1,1.915361360E-2,8.724471092E0,6.550535679E0
2.619999844E1,2.212242365E0,1.396298409E1,-8.331822157E-1
2.622499531E1,1.675941229E0,1.623268700E1,-3.830722809E0
2.624999219E1,1.398213744E0,9.270348549E0,8.140285611E-1
2.627498906E1,1.254561663E0,5.573701382E0,2.126051188E0
2.629998438E1,4.309563041E-1,5.027823448E0,3.016694069E0
2.632498281E1,2.489969730E-1,6.167463779E0,1.436521053E0
2.634997656E1,6.224924326E-1,8.398859978E0,9.576806426E-2
2.636999844E1,1.283292055E0,1.020887566E1,-5.363011956E-1
2.639499844E1,1.446097851E0,9.758766174E0,-5.746084079E-2
2.641999375E1,-9.576806799E-3,7.824251175E0,1.541865945E0
2.644498906E1,-1.656787634E0,9.203310966E0,5.075707436E-1
2.646998594E1,-2.327163935E0,1.118570995E1,4.692635238E-1
2.649498281E1,4.979939461E-1,1.221042824E1,9.959878922E-1
2.651997812E1,1.733402014E0,1.289038181E1,1.446097851E0
2.654000000E1,9.002198577E-1,1.355118179E1,1.321599364E0
2.656499844E1,2.968810201E-1,1.271799946E1,1.484405041E0
2.658999375E1,3.198653460E0,1.489193439E1,5.841852427E-1
2.661499219E1,2.834734917E0,1.116655636E1,-2.480392933E0
2.663998594E1,3.840299606E0,1.169328117E1,-9.385270476E-1
2.666498438E1,2.039859772E0,1.590707588E1,3.447650373E-1
2.668997969E1,-1.063025594E0,1.500685596E1,9.576806426E-2
2.671000312E1,-1.857900500E0,1.241154194E1,1.953668594E0
2.673500000E1,-1.369483352E0,1.006522369E1,2.853888512E0
2.675999375E1,9.576806799E-3,8.159439087E0,2.260126352E0
2.678499219E1,6.799532771E-1,6.914454460E0,1.273715258E0
2.680998750E1,1.216254473E0,7.067683220E0,2.394201756E-1
2.683502656E1,2.777273953E-1,7.240066051E0,-8.140285611E-1
2.685998125E1,-3.639186621E-1,5.592854977E0,-3.351882398E-1
2.688497812E1,-1.541865945E0,3.878606796E0,1.838746905E0
2.690500000E1,-2.384624958E0,3.265691042E0,2.815581083E0
2.692999688E1,-1.637633920E0,3.160346270E0,2.815581083E0
2.695502188E1,-1.503558636E0,3.275267839E0,3.380612850E0
2.697998906E1,-2.461239338E0,3.916913986E0,5.832275391E0
2.700498594E1,-1.063025594E0,6.196194172E0,8.667010307E0
2.702998125E1,1.331176162E0,1.538035202E1,8.504204750E0
2.705497969E1,-2.221819162E0,2.835692406E1,3.620033026E0
2.707502969E1,-5.200206280E0,1.461420727E1,4.769249916E0
2.709999844E1,-5.171475887E0,4.941632271E0,1.051533413E1
2.712499375E1,-2.260126352E0,1.322556973E1,8.312667847E0
2.714999062E1,3.677493811E0,1.712333107E1,-2.624045134E0
2.717498750E1,1.771709204E0,5.037400246E0,-6.330269337E0
2.719998281E1,-4.213795185E0,-1.043871999E0,-6.991068721E-1
2.722497969E1,2.968810201E-1,5.200206280E0,7.182605267E0
2.724500156E1,3.256114423E-1,1.065898609E1,2.777273893E0
2.726999844E1,-3.543418646E-1,1.756386375E1,-4.434061527E0
2.729499531E1,1.340752989E-1,1.251688671E1,4.118026793E-1
2.731502812E1,1.905784607E0,7.977479935E0,2.442085743E0
2.733998125E1,7.182605267E-1,5.755661011E0,1.637633920E0
2.736497969E1,6.033388376E-1,4.855441093E0,1.139639974E0
2.738500156E1,2.106897533E-1,6.157886982E0,5.554547906E-1
2.740999688E1,-1.244984865E-1,1.066856289E1,-1.158793569E0
2.742999688E1,-4.596867263E-1,1.138682365E1,-1.264138460E0
2.745498594E1,-2.777273953E-1,9.777919769E0,1.915361285E-1
2.747998125E1,8.140285611E-1,7.872135162E0,3.409343243E0
2.750497812E1,2.432508945E0,8.916007042E0,2.087743998E0
2.752500000E1,6.512228847E-1,9.442731857E0,-7.757213712E-1
2.754999531E1,7.661445439E-2,1.247857952E1,2.001552582E0
2.757499375E1,2.624045134E0,1.165497398E1,1.379060149E0
2.759998906E1,1.474828243E0,1.289995861E1,1.177947283E0
2.762498594E1,-1.359906554E0,1.306276417E1,9.385270476E-1
2.764998281E1,6.033388376E-1,1.633803177E1,1.053448766E-1
2.767497969E1,2.260126352E0,1.250730991E1,-2.078166962E0
2.769500156E1,2.604891539E0,1.133893967E1,-2.145204782E0
2.771999844E1,3.409343243E0,1.143470764E1,-8.619125932E-2
2.774499375E1,2.394201756E-1,1.447055531E1,5.075707436E-1
2.776999063E1,-1.762132406E0,1.422155857E1,1.005564690E0
2.779500156E1,-2.671929121E0,1.294784260E1,3.907337189E0
2.781998281E1,-6.224924326E-1,9.902418137E0,2.260126352E0
2.784497969E1,1.139639974E0,6.617573261E0,1.503558636E0
2.786500156E1,1.972822189E0,5.257667065E0,1.244984865E0
2.788999844E1,1.407790542E0,6.023811340E0,-1.244984865E-1
2.791499531E1,1.628057212E-1,6.703764915E0,-1.015141487E0
2.793999062E1,-7.948749661E-1,5.372588634E0,-2.873042040E-2
2.796498750E1,-2.020706177E0,4.070142746E0,2.173935175E0
2.798998281E1,-2.643198729E0,3.600879431E0,2.863465309E0
2.801498125E1,-1.953668594E0,3.859453201E0,3.035847664E0
2.803997812E1,-1.474828243E0,4.625597477E0,4.185064793E0
2.806000000E1,-1.436521053E0,5.918466568E0,5.257667065E0
2.808499688E1,-1.225831270E0,9.241618156E0,7.872135162E0
2.810999375E1,-6.991068721E-1,1.475785923E1,9.969455719E0
2.813499062E1,-9.576807022E-1,2.195004082E1,5.123591423E0
2.815502656E1,-3.418920040E0,1.461420727E1,4.912901878E0
2.817997656E1,-3.936067581E0,5.928043365E0,9.423578262E0
2.819999844E1,-3.466804028E0,1.188481712E1,8.379706383E0
2.822499688E1,1.704671621E0,2.039859772E1,-1.388636947E0
2.824999063E1,4.711789131E0,7.910442352E0,-3.878606796E0
2.827502031E1,-3.916913986E0,-7.757213712E-1,-2.758120298E0
2.829998438E1,-4.855441093E0,7.374141216E-1,5.104437828E0
2.832498125E1,2.298433632E-1,9.490615845E0,5.104437828E0
2.834997813E1,1.944091797E0,1.687433434E1,-4.807557106E0
2.837000000E1,7.661445141E-1,1.649126053E1,-1.944091797E0
2.839501875E1,1.321599364E0,8.101978302E0,2.786850691E0
2.841999219E1,7.182605267E-1,3.543418407E0,1.407790542E0
2.844498906E1,9.576807022E-1,3.744531393E0,1.063025594E0
2.846998594E1,9.768342972E-1,5.353435040E0,2.489969730E-1
2.849500938E1,1.465251446E0,9.557653427E0,-6.895300746E-1
2.851997812E1,-5.458779931E-1,1.437478733E1,-2.834734917E0
2.854000156E1,-2.250549555E0,1.154962921E1,-1.043871999E0
2.856499688E1,-2.959233284E0,9.107542992E0,3.543418407E0
2.858999375E1,3.830722719E-2,8.494627953E0,2.643198729E0
2.861499062E1,7.374141216E-1,1.032379818E1,-1.915361404E0
2.863998594E1,-2.298433632E-1,1.330218506E1,-1.819593310E-1
2.866498281E1,2.997540474E0,1.198058510E1,1.398213744E0
2.868997969E1,2.537853718E0,1.279461384E1,1.628057122E0
2.871000156E1,2.796427488E0,1.374271774E1,2.432508945E0
2.873499844E1,3.620033026E0,1.549527359E1,1.244984865E-1
2.875503281E1,3.016694069E0,1.354160500E1,-7.661445141E-1
2.877998594E1,2.106897593E0,1.212423706E1,-2.911349297E0
2.880498281E1,1.244984865E0,1.068771648E1,-1.551442742E0
2.882997812E1,-1.675941229E0,1.334049225E1,8.427590132E-1
2.885000156E1,-2.537853718E0,1.305318737E1,2.834734917E0
2.887500469E1,-2.930502892E0,1.186566353E1,3.495534420E0
2.889999375E1,-1.503558636E0,9.586383820E0,9.002198577E-1
2.892499063E1,4.884171486E-1,7.412448406E0,4.213795066E-1
2.894998594E1,1.541865945E0,6.387730122E0,3.256114423E-1
2.897498438E1,1.082179189E0,6.665457726E0,-9.385270476E-1
2.899997969E1,3.160346150E-1,5.803544998E0,-7.565677166E-1
2.902000313E1,-9.097966552E-1,4.750096321E0,6.895300746E-1
2.904499844E1,-2.317587137E0,4.118026733E0,2.834734917E0
2.906999531E1,-2.537853718E0,4.453215122E0,3.418920040E0
2.909499219E1,-1.982398987E0,4.960785866E0,3.869029999E0
2.911998750E1,-1.867477298E0,5.420472622E0,4.999093056E0
2.914498438E1,-1.292868972E0,6.023811340E0,6.378153324E0
2.916998125E1,-1.292868972E0,8.580819130E0,8.350975990E0
2.919497813E1,2.681505978E-1,2.155739212E1,1.003649330E1
2.921500000E1,-4.453215122E0,2.106897545E1,3.840299606E0
2.923999531E1,-4.817133904E0,7.603984833E0,6.426037312E0
2.926499375E1,-6.435614109E0,4.644751072E0,8.092401505E0
2.928998906E1,-8.619125932E-2,1.651041412E1,3.840299606E0
2.931498594E1,9.212887764E0,1.410663605E1,-4.031835556E0
2.933998125E1,-6.607996821E-1,5.937620163E0,-5.449203014E0
2.936497812E1,-2.145204782E0,3.035847664E0,5.171475887E0
2.938500156E1,-4.596867263E-1,5.295974255E0,6.713341713E0
2.940999688E1,-1.810016513E0,1.392467690E1,-3.055001259E0
2.943499375E1,-1.551442742E0,1.500685596E1,-2.518700123E0
2.945999063E1,4.501099288E-1,1.089840603E1,9.193734527E-1
2.948498750E1,8.140285611E-1,7.498639584E0,1.273715258E0
2.950998281E1,9.481038451E-1,4.740519524E0,1.608903527E0
2.953497969E1,6.320692301E-1,5.114014626E0,4.118026793E-1
2.955500156E1,3.830722570E-1,7.173028469E0,-2.873042040E-2
2.957999844E1,1.254561663E0,9.950302124E0,-9.576806799E-3
2.960499531E1,1.561019540E0,1.099417400E1,1.915361285E-1
2.962999219E1,8.523358107E-1,8.331821442E0,1.666364431E0
2.965498906E1,0.000000000E0,7.824251175E0,1.905784607E0
2.967998281E1,-8.619126081E-1,9.797073364E0,2.585737705E-1
2.970498125E1,-8.236053586E-1,1.276588345E1,4.596867263E-1
2.972997813E1,1.829170108E0,1.262223148E1,2.020706177E0
2.974999844E1,1.561019540E0,1.406832886E1,1.177947283E0
2.977499531E1,9.385270476E-1,1.450886250E1,1.752555609E0
2.979999219E1,2.681505919E0,1.670195198E1,1.216254473E0
2.982498906E1,3.572149038E0,1.411621284E1,-1.120486379E0
2.984998438E1,2.087743998E0,1.219127464E1,-4.280832767E0
2.987498125E1,7.182605267E-1,1.032379818E1,-1.580173135E0
2.989997812E1,-1.082179189E0,1.245942593E1,2.576161146E0
2.992000000E1,-1.733402014E0,1.283292103E1,3.533841610E0
2.994499844E1,-2.643198729E0,1.155920601E1,3.275267839E0
2.996999375E1,-3.734954596E-1,8.925583839E0,1.924938202E0
2.999499063E1,1.810016513E0,6.895300865E0,1.723825216E0
3.001998594E1,2.183511972E0,6.540958881E0,9.002198577E-1
3.004498281E1,3.351882398E-1,7.163451672E0,-7.757213712E-1
3.006997813E1,-2.585737705E-1,5.985504150E0,-1.043871999E0
3.009000156E1,-9.672574997E-1,4.587290287E0,8.619125932E-2
3.011499844E1,-1.857900500E0,3.677493811E0,2.049436569E0
3.013999375E1,-2.566584110E0,3.687070608E0,2.844311714E0
3.016499062E1,-1.924938202E0,4.568136692E0,3.112462282E0
3.018998750E1,-1.781286120E0,5.449203014E0,4.616020679E0
3.021498438E1,-1.168370485E0,6.933608055E0,7.393294811E0
3.023997969E1,-1.608903527E0,9.940725327E0,9.605537415E0
3.026497813E1,5.075707436E-1,2.288856888E1,8.753201485E0
3.028499844E1,-2.767697096E0,2.036029053E1,3.371036053E0
3.030999531E1,-3.782838583E0,8.111555099E0,7.192182064E0
3.033499219E1,-4.596867085E0,6.895300865E0,9.318233490E0
3.035998750E1,-1.436520964E-1,1.879927254E1,2.796427488E0
3.038498438E1,5.793968201E0,1.131020927E1,-5.276820660E0
3.040998125E1,-3.629609823E0,-4.405331016E-1,4.501099288E-1
3.043497656E1,-2.825158119E0,1.503558636E0,4.405331135E0
3.045500000E1,-5.937620401E-1,6.569689274E0,7.058106422E0
3.047999688E1,-1.264138460E0,1.417367363E1,1.120486379E0
3.050499375E1,-1.206677675E0,1.571553993E1,-1.139639974E0
3.052999063E1,1.082179189E0,9.270348549E0,2.509123325E0
3.055502813E1,1.359906554E0,6.196194172E0,1.599326730E0
3.057998281E1,1.493981838E0,4.261679173E0,1.723825216E0
3.060497969E1,9.481038451E-1,4.941632271E0,9.481038451E-1
3.062500156E1,3.351882398E-1,7.278373241E0,5.554547906E-1
3.064999688E1,6.895300746E-1,1.071644688E1,1.005564690E0
3.067499375E1,1.168370485E0,1.170285797E1,4.022258818E-1
3.069999062E1,1.197100878E0,8.303091049E0,1.886630893E0
3.072498750E1,7.374141216E-1,7.718906403E0,1.810016513E0
3.074998438E1,-4.079719543E0,1.074517727E1,-7.661445141E-1
3.077497969E1,-1.177947283E0,1.244027233E1,1.120486379E0
3.079504844E1,3.524264812E0,1.250730991E1,1.924938202E0
3.081999844E1,2.614468336E0,1.425986576E1,1.733402014E0
3.084499531E1,6.224924326E-1,1.446097851E1,1.254561663E0
3.086999219E1,3.284844637E0,1.502600956E1,4.213795066E-1
3.089498906E1,1.417367458E0,1.219127464E1,-1.637633920E0
3.091999531E1,-6.033388376E-1,1.024718285E1,-8.619125932E-2
3.094500000E1,2.968810201E-1,1.202846909E1,5.650315881E-1
3.096997812E1,8.619125932E-2,1.561977196E1,2.729389906E0
3.099000000E1,-2.624045134E0,1.382890892E1,2.767697096E0
3.101499688E1,-2.451662540E0,1.069729328E1,3.514688015E0
3.103500938E1,-6.320692301E-1,8.647856712E0,1.905784607E0
3.105998281E1,1.733402014E0,6.426037312E0,1.589749932E0
3.108497969E1,1.752555609E0,5.765237808E0,9.385270476E-1
3.110500313E1,8.140285611E-1,6.339846134E0,2.873041928E-1
3.112999844E1,3.830722570E-1,5.133168221E0,-7.661445439E-2
3.115499531E1,-4.884171486E-1,3.533841610E0,1.187524080E0
3.117999063E1,-1.608903527E0,2.863465309E0,2.892195702E0
3.120498906E1,-2.020706177E0,3.600879431E0,3.332728863E0
3.122998438E1,-1.810016513E0,4.558559895E0,3.667917013E0
3.125498125E1,-1.905784607E0,5.305551052E0,4.520252705E0
3.127997813E1,-1.857900500E0,7.134721279E0,6.023811340E0
3.129999844E1,-1.388636947E0,1.108994198E1,8.159439087E0
3.132499688E1,1.034295082E0,2.436339569E1,1.014183807E1
3.134999219E1,-3.122039080E0,1.936430359E1,2.978386879E0
3.137499063E1,-5.219359875E0,6.100425720E0,7.153874874E0
3.139500313E1,-3.897760391E0,3.275267839E0,8.705317497E0
3.141997656E1,3.830722809E0,1.974737549E1,-1.733402014E0
3.143999844E1,6.761225700E0,2.018790817E1,-4.941632271E0
3.146499688E1,1.321599364E0,7.910442352E0,-5.631162167E0
3.148999062E1,-5.104437828E0,1.053448796E0,1.101332784E0
3.151498750E1,-3.122039080E0,3.390189648E0,7.335834026E0
3.153998438E1,-1.340752959E0,9.509769440E0,2.403778553E0
3.156498125E1,5.363011956E-1,1.513135433E1,-3.495534420E0
3.158997813E1,1.474828243E0,1.267011547E1,7.661445141E-1
3.161000000E1,1.570596337E0,8.485051155E0,2.317587137E0
3.163503750E1,7.469909191E-1,5.736507416E0,2.001552582E0
3.165999219E1,7.469909191E-1,5.142745018E0,1.532289028E0
3.168499062E1,8.906430602E-1,6.742072105E0,4.022258818E-1
3.170998594E1,1.120486379E0,9.069235802E0,-2.489969730E-1
3.173498281E1,7.757213712E-1,1.098459721E1,-7.182605267E-1
3.175500000E1,5.746083856E-1,9.481039047E0,9.002198577E-1
3.178000000E1,-2.394201756E-1,7.967903137E0,3.256114244E0
3.180499844E1,-1.034295082E0,8.791508675E0,1.733402014E0
3.182999375E1,-1.340752959E0,1.130063248E1,1.723825186E-1
3.185499063E1,8.714894056E-1,1.344583702E1,1.158793569E0
3.187998594E1,3.150769472E0,1.312022495E1,2.461239338E0
3.190498281E1,1.331176162E0,1.408748245E1,1.177947283E0
3.192997969E1,1.762132406E0,1.724782944E1,5.363011956E-1
3.195000156E1,3.303998232E0,1.421198082E1,-2.489969730E-1
3.197499844E1,3.217807055E0,1.178904915E1,-2.231395960E0
3.199500313E1,2.537853718E0,1.055364132E1,-7.661445141E-1
3.201998594E1,8.619126081E-1,1.281376743E1,2.968810201E-1
3.204498281E1,-1.446097851E0,1.419282722E1,1.771709204E0
3.206997969E1,-3.457227230E0,1.246900272E1,2.509123325E0
3.209000000E1,-2.279279947E0,1.025675964E1,2.030282974E0
3.211501875E1,3.926490843E-1,7.345410824E0,1.388636947E0
3.213999375E1,2.164358377E0,5.449203014E0,1.302445769E0
3.216499062E1,1.896207690E0,6.186617374E0,1.819593310E-1
3.218998594E1,5.554547906E-1,7.058106422E0,-4.692635238E-1
3.221498438E1,-8.427590132E-1,5.516240597E0,2.106897533E-1
3.223501875E1,-2.461239338E0,4.338293552E0,2.250549555E0
3.226000156E1,-3.169923067E0,3.160346270E0,3.189076662E0
3.228500000E1,-1.829170108E0,3.543418407E0,2.576161146E0
3.230999531E1,-1.685518026E0,3.897760391E0,3.189076662E0
3.233499219E1,-1.982398987E0,4.989516258E0,5.257667065E0
3.235998750E1,-1.388636947E0,7.632715225E0,8.082824707E0
3.238498438E1,-5.650315881E-1,1.482489681E1,1.037168217E1
3.240998125E1,-4.529829502E0,1.436521053E1,3.284844637E0
3.243497812E1,-4.960785866E0,1.182735634E1,4.788403511E0
3.245500000E1,-5.516240597E0,4.290409565E0,9.050082207E0
3.247999688E1,-1.685518026E0,1.295741940E1,9.241618156E0
3.250499219E1,4.750096321E0,2.193088722E1,-5.640739441E0
3.252998906E1,4.386177540E0,6.349422932E0,-4.386177540E0
3.255498438E1,-4.836287498E0,-2.308010340E0,2.394201756E-1
3.257998281E1,-5.985504150E0,-1.034295082E0,5.755661011E0
3.260497812E1,-1.503558636E0,1.128147888E1,2.336740971E0
3.262500156E1,1.628057122E0,1.841619873E1,-5.391742229E0
3.264999688E1,1.034295082E0,1.664448929E1,-2.355894566E0
3.267499375E1,1.656787634E0,6.512228489E0,2.748543501E0
3.269999063E1,8.619126081E-1,4.127603531E0,1.963245392E0
3.272501406E1,7.278373241E-1,4.654327869E0,1.034295082E0
3.274998125E1,9.768342972E-1,6.789956093E0,4.979939461E-1
3.277497969E1,1.790862918E0,9.327810287E0,-1.149216771E0
3.279500156E1,9.768342972E-1,1.134851646E1,-1.742978811E0
3.281999844E1,3.064578176E-1,9.059659004E0,1.082179189E0
3.284502812E1,2.968810201E-1,8.197746277E0,3.131615877E0
3.286999219E1,-1.321599364E0,9.548076630E0,9.768342972E-1
3.289498906E1,-2.403778553E0,1.182735634E1,1.005564690E0
3.291998438E1,6.512228847E-1,1.262223148E1,1.666364431E0
3.294497969E1,3.562572241E0,1.298614979E1,1.235408068E0
3.296997813E1,1.254561663E0,1.363737297E1,1.206677675E0
3.298999844E1,2.489969730E0,1.629014778E1,6.703764796E-1
3.301499688E1,3.313575268E0,1.436521053E1,-3.543418646E-1
3.303999219E1,2.882618904E0,1.163582039E1,-3.045424461E0
3.306498906E1,2.863465309E0,1.252646351E1,-7.757213712E-1
3.308998594E1,-1.292868972E0,1.612734222E1,9.864110947E-1
3.311498281E1,-2.863465309E0,1.417367363E1,2.269703150E0
3.313997812E1,-3.189076662E0,1.104205799E1,2.528276920E0
3.316000000E1,-9.097966552E-1,8.753201485E0,2.375048161E0
3.318499688E1,1.580173135E0,6.368576527E0,1.695094824E0
3.320999375E1,2.671929121E0,5.544970989E0,7.852981687E-1
3.323499062E1,1.398213744E0,6.177040577E0,-7.278373241E-1
3.325998594E1,7.661445439E-2,5.707777023E0,-9.959878922E-1
3.328498281E1,-9.864110947E-1,3.955221176E0,7.565677166E-1
3.330997812E1,-2.030282974E0,3.141192675E0,2.758120298E0
3.333000156E1,-2.308010340E0,3.342305660E0,2.892195702E0
3.335499844E1,-1.972822189E0,4.271255970E0,2.853888512E0
3.337999375E1,-2.231395960E0,5.037400246E0,3.859453201E0
3.340499219E1,-2.240972757E0,6.301538944E0,5.324704647E0
3.343002969E1,-5.267243981E-1,1.020887566E1,1.017056847E1
3.345498438E1,1.647210717E0,2.363555908E1,9.940725327E0
3.347998125E1,-5.037400246E0,2.110728264E1,1.704671621E0
3.350497656E1,-6.167463779E0,6.981492043E0,6.569689274E0
3.352499844E1,-4.606443882E0,7.852981567E0,9.931148529E0
3.354999531E1,-7.661445141E-1,1.858858109E1,7.757213712E-1
3.357499219E1,6.033388138E0,1.429817295E1,-4.884171486E0
3.359998906E1,1.675941229E0,2.547430515E0,-1.704671621E0
3.362498438E1,-4.616020679E0,-2.537853718E0,2.097320795E0
3.364998125E1,-3.782838583E0,3.361459255E0,6.033388138E0
3.367497969E1,4.788403511E-1,1.470997524E1,-9.193734527E-1
3.369500156E1,2.327163935E0,2.008256340E1,-4.328716755E0
3.371999688E1,1.244984865E0,1.189439392E1,1.139639974E0
3.374499375E1,6.033388376E-1,5.420472622E0,2.614468336E0
3.376998906E1,3.351882398E-1,4.606443882E0,1.934514999E0
3.379499063E1,1.532289088E-1,5.430049419E0,9.864110947E-1
3.381998125E1,2.777273953E-1,8.178592682E0,1.915361285E-1
3.384497813E1,6.416460276E-1,1.006522369E1,-8.140285611E-1
3.386500156E1,1.436520964E-1,1.031422138E1,-1.340752989E-1
3.388999688E1,5.937620401E-1,7.987056732E0,2.815581083E0
3.391499531E1,1.235408068E0,7.996633530E0,3.687070608E0
3.393998906E1,3.256114423E-1,8.839392662E0,1.120486379E0
3.396498750E1,-1.053448766E-1,1.265096188E1,5.746084079E-2
3.398998281E1,3.342305660E0,1.276588345E1,1.273715258E0
3.401498125E1,1.991975784E0,1.378102493E1,1.312022567E0
3.403502500E1,1.206677675E0,1.622311020E1,1.034295082E0
3.405999844E1,2.461239338E0,1.629014778E1,2.298433632E-1
3.408499688E1,2.480392933E0,1.462378407E1,-2.806004286E0
3.410999219E1,2.068590164E0,1.132936287E1,-3.083731890E0
3.413498906E1,-1.359906554E0,1.109951878E1,1.063025594E0
3.415501563E1,-1.244984865E0,1.382890892E1,3.485957623E0
3.417997656E1,-2.020706177E0,1.434605694E1,1.321599364E0
3.419999844E1,-1.369483352E0,1.224873543E1,1.857900500E0
3.422499531E1,4.213795066E-1,8.408436775E0,1.647210717E0
3.424999062E1,2.327163935E0,5.870582581E0,1.388636947E0
3.427500781E1,2.384624958E0,5.075707436E0,3.543418646E-1
3.429998281E1,5.554547906E-1,5.918466568E0,-5.458779931E-1
3.432497969E1,-7.086837292E-1,5.688623428E0,-1.915361360E-2
3.434997656E1,-1.877054095E0,4.673481941E0,1.197100878E0
3.436999844E1,-2.518700123E0,4.165910721E0,2.221819162E0
3.439499531E1,-2.279279947E0,3.830722809E0,2.384624958E0
3.441999219E1,-1.608903527E0,4.098873138E0,3.150769472E0
3.444498906E1,-1.762132406E0,4.865017891E0,4.252102375E0
3.446998438E1,-2.087743998E0,6.406883717E0,6.358999729E0
3.449498125E1,-1.589749932E0,1.022802925E1,1.216254425E1
3.451997656E1,8.619126081E-1,2.345359993E1,7.805097580E0
3.454000000E1,-1.867477298E0,2.104024506E1,1.283292055E0
3.456500000E1,-3.897760391E0,9.299078941E0,6.378153324E0
3.458999219E1,-2.106897593E0,8.331821442E0,9.682151794E0
3.461498906E1,1.015141487E0,1.805228043E1,2.480392933E0
3.463502500E1,4.548983097E0,1.537077522E1,-3.964797974E0
3.465997656E1,-1.292868972E0,3.840299606E0,-3.830722809E0
3.467999844E1,-6.148310184E0,-1.484405041E0,-3.064578176E-1
3.470499531E1,-4.625597477E0,3.332728863E0,5.075707436E0
3.472999219E1,-8.619125932E-2,1.184650993E1,1.675941229E0
3.475499063E1,2.087743998E0,1.683602715E1,-4.654327869E0
3.477998438E1,8.523358107E-1,1.163582039E1,4.692635238E-1
3.480498281E1,6.416460276E-1,6.263231754E0,2.288856745E0
3.482997813E1,7.565677166E-1,4.865017891E0,1.561019540E0
3.485000000E1,1.273715258E0,5.152322292E0,1.235408068E0
3.487503438E1,1.273715258E0,6.876147270E0,1.321599364E0
3.489999219E1,8.427590132E-1,1.119528675E1,-7.852981687E-1
3.492499062E1,2.777273953E-1,1.249773312E1,7.661445439E-2
3.494998594E1,2.873041928E-1,8.379706383E0,3.284844637E0
3.497498281E1,4.979939461E-1,6.837840080E0,3.485957623E0
3.499997813E1,-2.777273953E-1,9.165003777E0,2.873041928E-1
3.502000156E1,-9.959878922E-1,1.117613316E1,-1.628057212E-1
3.504502031E1,1.685518026E0,1.180820274E1,5.267243981E-1
3.506999375E1,3.859453201E0,1.300530338E1,1.398213744E0
3.509499062E1,9.576806426E-2,1.234450436E1,1.790862918E0
3.511499531E1,3.830722570E-1,1.467166805E1,1.628057122E0
3.513997656E1,2.624045134E0,1.370441055E1,1.628057212E-1
3.516000000E1,3.026270866E0,1.216254425E1,-2.394201756E0
3.518499688E1,3.323152065E0,1.223915863E1,-5.937620401E-1
3.520999219E1,8.714894056E-1,1.558146477E1,-4.118026793E-1
3.523503281E1,-2.403778553E0,1.527500725E1,9.002198577E-1
3.525998594E1,-2.825158119E0,1.251688671E1,3.361459255E0
3.528498281E1,-1.244984865E0,1.031422138E1,1.800439715E0
3.530997969E1,5.746083856E-1,7.211335659E0,9.959878922E-1
3.533000156E1,1.235408068E0,5.698200226E0,1.158793569E0
3.535502969E1,1.359906554E0,5.870582581E0,-1.915361360E-2
3.537999375E1,4.309563041E-1,6.569689274E0,-8.331822157E-1
3.540499062E1,-5.746083856E-1,5.315127850E0,-2.202665508E-1
3.542999219E1,-2.269703150E0,3.849876404E0,2.346317768E0
3.545498281E1,-3.083731890E0,3.495534420E0,2.700659513E0
3.547500000E1,-2.547430515E0,3.495534420E0,2.442085743E0
3.550000312E1,-1.877054095E0,3.734954596E0,2.489969730E0
3.552499844E1,-1.637633920E0,4.769249916E0,4.654327869E0
3.554999531E1,-9.193734527E-1,7.249642849E0,8.082824707E0
3.557499219E1,3.351882398E-1,1.578257751E1,1.243069553E1
3.559500625E1,-8.714894056E-1,2.574245644E1,6.837840080E0
3.561997969E1,-4.041412354E0,1.361821938E1,3.830722809E0
3.564000156E1,-4.386177540E0,7.029376030E0,8.303091049E0
3.566499844E1,-2.901772499E0,1.539950562E1,8.829815865E0
3.568999375E1,3.284844637E0,1.965160751E1,-2.202665567E0
3.571503125E1,2.624045134E0,3.648763418E0,-5.621585369E0
3.573998594E1,-4.472368717E0,-2.097320795E0,-1.340752959E0
3.576500781E1,-1.877054095E0,4.529829502E0,5.832275391E0
3.578997969E1,-4.788403213E-2,1.187524033E1,1.273715258E0
3.581497656E1,-4.501099288E-1,1.794693565E1,-2.987963676E0
3.583502656E1,3.351882398E-1,1.330218506E1,1.082179189E0
3.585999531E1,1.551442742E0,8.427590370E0,2.442085743E0
3.588499219E1,1.015141487E0,5.985504150E0,1.321599364E0
3.590998750E1,-4.788403213E-2,4.922478676E0,1.637633920E0
3.593498594E1,-1.005564690E0,5.832275391E0,6.799532771E-1
3.595500156E1,-1.091755986E0,7.431602001E0,-4.118026793E-1
3.597997188E1,8.427590132E-1,1.018972206E1,-7.278373241E-1
3.599999375E1,2.758120298E0,1.013226128E1,5.075707436E-1
3.602499062E1,2.997540474E0,8.619126320E0,3.256114244E0
3.604998750E1,1.589749932E0,8.647856712E0,3.495534420E0
3.607502656E1,-8.619125932E-2,9.126696587E0,1.532289088E-1
3.609998125E1,-2.873041928E-1,1.228704357E1,5.458779931E-1
3.612497656E1,2.480392933E0,1.225831223E1,2.183511972E0
3.614500000E1,2.422932148E0,1.303403378E1,3.572149038E0
3.616999531E1,9.864110947E-1,1.204762268E1,2.470816135E0
3.619499688E1,2.806004286E0,1.575384712E1,8.140285611E-1
3.621998906E1,2.873042107E0,1.338837624E1,-2.346317768E0
3.624498438E1,4.884171486E-1,1.128147888E1,-2.097320795E0
3.626998125E1,-1.034295082E0,1.393425369E1,-6.129156351E-1
3.629497969E1,6.033388376E-1,1.593580627E1,1.082179189E0
3.631503281E1,-9.002198577E-1,1.488235760E1,2.557007313E0
3.633999688E1,-2.403778553E0,1.348414421E1,3.236960649E0
3.636499375E1,-3.830722719E-2,9.193734169E0,7.469909191E-1
3.638998906E1,7.469909191E-1,6.291962147E0,1.264138460E0
3.641498594E1,5.075707436E-1,6.023811340E0,1.819593310E-1
3.643998281E1,4.118026793E-1,5.832275391E0,-7.278373241E-1
3.646497969E1,3.830722719E-2,4.644751072E0,-6.129156351E-1
3.648500156E1,-1.005564690E0,3.543418407E0,6.607996821E-1
3.650999844E1,-2.700659513E0,3.074155092E0,2.365471363E0
3.653499375E1,-3.418920040E0,3.639186621E0,2.480392933E0
3.655999063E1,-2.873042107E0,4.118026733E0,2.671929121E0
3.658498594E1,-2.355894566E0,5.248090267E0,4.606443882E0
3.660998281E1,-1.235408068E0,7.163451672E0,6.952761650E0
3.663497969E1,-5.075707436E-1,1.467166805E1,1.183693314E1
3.665500781E1,9.576806799E-3,2.482308388E1,9.193734169E0
3.667999844E1,-3.351882458E0,1.536119843E1,2.566584110E0
3.670499531E1,-3.093308687E0,4.175487995E0,7.814674377E0
3.672999062E1,-1.685518026E0,7.642292023E0,9.969455719E0
3.675498906E1,5.238513470E0,1.936430359E1,-9.768342972E-1
3.677998438E1,2.240972757E0,1.492066479E1,-8.676587105E0
3.680498125E1,-7.623138428E0,3.543418407E0,-1.312022567E0
3.682997813E1,-4.405331135E0,1.024718285E0,7.249642849E0
3.684999844E1,-2.384624958E0,5.248090267E0,7.297526836E0
3.687499688E1,5.171475410E-1,1.186566353E1,-2.221819162E0
3.689999219E1,2.614468336E0,1.646253014E1,-3.495534420E0
3.692498906E1,1.934514999E0,1.076433086E1,7.852981687E-1
3.694998438E1,3.639186621E-1,5.200206280E0,2.432508945E0
3.697498281E1,7.469909191E-1,3.323152065E0,1.829170108E0
3.699997813E1,1.292868972E0,5.257667065E0,4.213795066E-1
3.702000000E1,1.656787634E0,8.034940720E0,3.830722719E-2
3.704499844E1,8.523358107E-1,1.214339066E1,-4.884171486E-1
3.706999375E1,5.937620401E-1,8.801085472E0,5.937620401E-1
3.709499062E1,1.321599364E0,8.494627953E0,3.246537447E0
3.711998594E1,2.873042040E-2,1.014183807E1,1.149216771E0
3.714498438E1,-2.183511972E0,1.127190113E1,1.417367458E0
3.716997969E1,1.675941229E0,1.153047562E1,4.884171486E-1
3.719000156E1,3.811569214E0,1.311064816E1,2.873041928E-1
3.721500000E1,1.283292055E0,1.345541382E1,1.063025594E0
3.723999375E1,2.499546528E0,1.615607262E1,1.197100878E0
3.726499062E1,4.424484730E0,1.525585365E1,-1.063025594E0
3.728998750E1,2.748543501E0,1.213381386E1,-3.926490784E0
3.731498438E1,1.398213744E0,9.337387085E0,1.628057212E-1
3.733998125E1,-3.734954596E-1,1.322556973E1,2.375048161E0
3.736497812E1,-3.418920040E0,1.503558636E1,2.681505919E0
3.738500000E1,-3.907337189E0,1.317768574E1,2.001552582E0
3.740999688E1,9.097966552E-1,7.814674377E0,1.771709204E0
3.743001094E1,2.269703150E0,6.320692539E0,1.656787634E0
3.745498438E1,3.323152065E0,4.711789131E0,1.158793569E0
3.747997969E1,2.959233284E0,5.487510204E0,-4.979939461E-1
3.750000156E1,1.532289088E-1,5.544970989E0,-2.873041928E-1
3.752500000E1,-5.075707436E-1,5.276820660E0,1.513135433E0
3.754999531E1,-2.547430515E0,3.849876404E0,2.394201756E0
3.757499219E1,-2.758120298E0,4.635174274E0,3.074155092E0
3.759998750E1,-1.886630893E0,4.673481941E0,3.198653460E0
3.762498438E1,-1.972822189E0,5.592854977E0,4.031835556E0
3.764997969E1,-1.685518026E0,7.010222435E0,5.861005783E0
3.767497812E1,-7.182605267E-1,1.030464458E1,1.034295177E1
3.769499844E1,3.639186621E-1,1.592622948E1,9.375694275E0
3.771999531E1,-1.704671621E0,1.784159088E1,4.797980309E0
3.774499375E1,-2.978386879E0,8.647856712E0,6.904877663E0
3.776998906E1,-3.916913986E0,5.813121796E0,7.536946774E0
3.779498438E1,-1.302445769E0,1.393425369E1,7.048529625E0
3.781998125E1,5.439626217E0,1.918234444E1,-3.131615877E0
3.784497969E1,-2.633621931E0,6.828263283E0,-6.435614109E0
3.786500156E1,-5.803544998E0,1.561019540E0,6.703764945E-2
3.788999688E1,-1.580173135E0,3.524264812E0,8.676587105E0
3.791499375E1,-5.650315881E-1,9.414001465E0,3.016694069E0
3.793998906E1,6.033388376E-1,1.562934875E1,-3.418920040E0
3.796498750E1,1.628057122E0,1.296699619E1,-1.082179189E0
3.798998281E1,1.043871999E0,6.856993675E0,1.905784607E0
3.801497969E1,2.681505978E-1,4.271255970E0,2.346317768E0
3.803500156E1,3.926490843E-1,4.367023945E0,1.312022567E0
3.805999844E1,1.158793569E0,7.211335659E0,4.501099288E-1
3.808499531E1,1.608903527E0,9.375694275E0,9.193734527E-1
3.810999062E1,1.953668594E0,1.041956615E1,5.267243981E-1
3.813498750E1,1.072602391E0,8.207323074E0,3.830722570E-1
3.815998438E1,-1.254561663E0,7.393294811E0,1.867477298E0
3.818498125E1,-1.388636947E0,1.004607010E1,1.704671621E0
3.820997656E1,-1.340752989E-1,1.268926907E1,-7.661445439E-2
3.822999844E1,2.145204782E0,1.235408115E1,-2.298433632E-1
3.825499531E1,2.662352324E0,1.343626022E1,1.024718285E0
3.827999219E1,2.968810201E-1,1.364694977E1,1.493981838E0
3.830498906E1,2.394201756E0,1.754471016E1,9.002198577E-1
3.832998438E1,3.744531393E0,1.414494324E1,-2.078166962E0
3.835501719E1,3.074155092E0,1.184650993E1,-3.754108191E0
3.837997656E1,4.118026793E-1,9.777919769E0,-6.991068721E-1
3.839999844E1,-1.264138460E0,1.260307789E1,1.072602391E0
3.842499688E1,-2.193088770E0,1.422155857E1,2.116474390E0
3.844999375E1,-1.819593310E0,1.302445698E1,2.403778553E0
3.847502969E1,-1.723825186E-1,1.021845245E1,2.327163935E0
3.849998594E1,1.934514999E0,6.971915245E0,9.385270476E-1
3.852498281E1,2.662352324E0,5.209783077E0,-7.661445439E-2
3.854997969E1,1.417367458E0,5.698200226E0,-4.788403511E-1
3.857000156E1,2.777273953E-1,5.458779812E0,-5.458779931E-1
3.859502656E1,-1.398213744E0,4.108449936E0,1.302445769E0
3.861999375E1,-2.528276920E0,3.936067581E0,2.959233284E0
3.864499219E1,-2.135627985E0,4.252102375E0,2.911349297E0
3.866998594E1,-1.637633920E0,4.481945515E0,3.505111217E0
3.869498438E1,-1.810016513E0,4.989516258E0,5.257667065E0
3.871500938E1,-2.020706177E0,6.406883717E0,6.655880928E0
3.873997031E1,-1.455674648E0,9.816226959E0,9.481039047E0
3.875999219E1,2.873041928E-1,1.657745171E1,8.303091049E0
3.878499062E1,1.810016513E0,2.285026169E1,3.179499865E0
3.880998594E1,-5.650315881E-1,1.162624359E1,5.774814606E0
3.883498125E1,-2.288856745E0,2.202665567E0,9.002198219E0
3.885997969E1,1.235408068E0,9.567230225E0,7.431602001E0
3.888000000E1,5.324704647E0,1.982398987E1,-6.397306919E0
3.890499844E1,-5.410895824E0,1.096544361E1,-8.121131897E0
3.892999375E1,-6.914454460E0,1.819593310E0,2.949656487E0
3.895503125E1,-2.039859772E0,2.624045134E0,9.816226959E0
3.897998750E1,1.321599364E0,8.590395927E0,2.173935175E0
3.900498438E1,3.821146011E0,1.510262394E1,-5.008669853E0
3.902997969E1,2.633621931E0,1.364694977E1,-1.561019540E0
3.905497813E1,8.236053586E-1,7.048529625E0,3.064578056E0
3.907503594E1,-4.979939461E-1,4.941632271E0,2.681505919E0
3.909999531E1,-6.416460276E-1,4.491522312E0,6.703764796E-1
3.912502500E1,3.160346150E-1,6.531382084E0,2.202665508E-1
3.914998906E1,4.213795066E-1,9.433155060E0,5.937620401E-1
3.917498438E1,-2.681505978E-1,1.090798283E1,2.777273953E-1
3.919998125E1,0.000000000E0,8.935160637E0,1.130063176E0
3.922497812E1,-1.072602391E0,8.829815865E0,2.269703150E0
3.924500000E1,-1.063025594E0,1.128147888E1,1.580173135E0
3.926999688E1,2.968810201E-1,1.221042824E1,-3.926490843E-1
3.929499375E1,2.633621931E0,1.269884586E1,1.340752959E0
3.931500469E1,3.734954596E-1,1.366610336E1,1.273715258E0
3.933998125E1,7.565677166E-1,1.446097851E1,3.160346150E-1
3.936497812E1,3.351882458E0,1.539950562E1,-1.963245392E0
3.938500000E1,3.514688015E0,1.262223148E1,-1.838746905E0
3.940999531E1,1.886630893E0,1.464293766E1,-2.298433632E-1
3.943499531E1,3.543418646E-1,1.466209126E1,-6.895300746E-1
3.945998750E1,-2.202665567E0,1.424071217E1,9.193734527E-1
3.948498438E1,-3.514688015E0,1.370441055E1,2.470816135E0
3.950998125E1,-1.417367458E0,1.017056847E1,1.656787634E0
3.953497812E1,1.800439715E0,5.746084213E0,1.043871999E0
3.955501406E1,2.346317768E0,5.056553841E0,4.309563041E-1
3.957999531E1,9.576807022E-1,6.062118530E0,-8.619126081E-1
3.960499375E1,-9.576806799E-3,6.062118530E0,-1.388636947E0
3.962998906E1,-7.757213712E-1,4.223371983E0,3.543418646E-1
3.965498594E1,-1.800439715E0,3.265691042E0,2.911349297E0
3.967998125E1,-2.078166962E0,3.141192675E0,3.696647406E0
3.970497969E1,-2.059013367E0,4.319139957E0,3.821146011E0
3.972500156E1,-2.499546528E0,4.951209068E0,5.343858242E0
3.974999688E1,-2.078166962E0,5.880159378E0,6.837840080E0
3.977499531E1,-1.091755986E0,1.090798283E1,1.007480049E1
3.979999062E1,1.168370485E0,2.399947739E1,7.268796444E0
3.982498750E1,-2.279279947E0,1.706587029E1,1.972822189E0
3.984998281E1,-3.083731890E0,1.039083576E1,7.125144482E0
3.987497969E1,-8.906430602E-1,1.796608925E1,7.469909191E0
3.989500312E1,1.484405041E0,1.291911221E1,1.762132406E0
3.991999844E1,9.576806426E-2,-3.821146011E0,-6.081272125E0
3.994499844E1,-6.646304131E0,-3.035847664E0,-2.863465309E0
3.996999062E1,-2.317587137E0,1.087925243E1,5.133168221E0
3.999498750E1,-1.379060149E0,2.122220421E1,-1.139639974E0
4.001998438E1,-5.937620401E-1,1.265096188E1,1.618480325E0
4.004498125E1,2.528276920E0,5.698200226E0,4.979939461E0
4.006997656E1,1.848323703E0,5.324704647E0,2.968810201E-1
4.009000000E1,-9.576806799E-3,7.058106422E0,-5.650315881E-1
4.011499688E1,-6.224924326E-1,8.657433510E0,1.886630893E0
4.013999219E1,7.565677166E-1,9.528923035E0,4.213795066E-1
4.016499062E1,5.363011956E-1,9.854534149E0,-1.034295082E0
4.018998594E1,1.149216816E-1,8.705317497E0,3.447650373E-1
4.021498281E1,9.576806426E-2,8.255207062E0,2.011129379E0
4.023997812E1,-3.064578176E-1,9.394847870E0,2.461239338E0
4.026000156E1,-5.363011956E-1,9.979032516E0,3.026270866E0
4.028499688E1,4.979939461E-1,1.116655636E1,1.235408068E0
4.030999375E1,1.666364431E0,1.192312431E1,-1.043871999E0
4.033499062E1,6.320692301E-1,1.304361057E1,-2.011129409E-1
4.035998594E1,3.639186621E-1,1.288080502E1,1.455674648E0
4.038498438E1,2.652775526E0,1.495897198E1,6.799532771E-1
4.040997969E1,1.599326730E0,1.210508347E1,-1.675941229E0
4.043000313E1,1.561019540E0,1.104205799E1,6.416460276E-1
4.045499844E1,1.972822189E0,1.186566353E1,8.331822157E-1
4.047999531E1,-1.915361360E-2,1.514093113E1,-3.830722570E-1
4.050499219E1,-4.654327869E0,1.451843929E1,2.298433542E0
4.052998750E1,-2.317587137E0,1.135809326E1,3.897760391E0
4.055498438E1,1.752555609E0,7.661445618E0,4.213795066E-1
4.057998125E1,1.005564690E0,5.324704647E0,2.394201756E-1
4.060497812E1,-3.447650373E-1,5.228936672E0,4.022258818E-1
4.062500000E1,-6.895300746E-1,5.535394192E0,6.895300746E-1
4.064999531E1,-6.799532771E-1,4.941632271E0,3.256114423E-1
4.067499219E1,-1.589749932E0,4.520252705E0,1.474828243E0
4.069998906E1,-2.097320795E0,4.769249916E0,2.604891539E0
4.072498594E1,-2.173935175E0,5.363011837E0,2.987963676E0
4.074998125E1,-1.561019540E0,5.947196960E0,4.290409565E0
4.077497969E1,-1.149216771E0,7.508216381E0,5.286397457E0
4.079500000E1,-1.350329757E0,8.379706383E0,6.397306919E0
4.081999688E1,-1.570596337E0,1.124317074E1,9.452308655E0
4.084499375E1,-1.024718285E0,1.842577553E1,6.598419666E0
4.086998906E1,-2.087743998E0,1.569638634E1,8.714894056E-1
4.089498750E1,-1.656787634E0,8.188169479E0,5.219359875E0
4.091998281E1,1.369483352E0,1.574427032E1,9.222464561E0
4.094497969E1,4.654327869E0,1.603157425E1,-2.327163935E0
4.096500156E1,1.800439715E0,5.803544998E0,-6.742072105E0
4.098999844E1,-7.584830761E0,1.915361285E-1,8.523358107E-1
4.101499375E1,-5.793968201E0,4.568136692E0,1.087925243E1
4.103999062E1,-3.160346150E-1,1.014183807E1,1.838746905E0
4.106498750E1,2.949656487E0,1.594538307E1,-4.232948780E0
4.108998281E1,3.351882458E0,1.219127464E1,-9.481038451E-1
4.111502031E1,2.585737944E0,5.583278179E0,1.618480325E0
4.113997656E1,7.278373241E-1,3.246537447E0,1.714248419E0
4.116000000E1,1.915361285E-1,4.204218388E0,1.139639974E0
4.118499688E1,9.097966552E-1,6.809109688E0,-8.619125932E-2
4.120999219E1,1.053448796E0,1.081221485E1,-8.044517636E-1
4.123498906E1,-3.830722570E-1,1.267011547E1,-1.120486379E0
4.125998438E1,-1.991975784E0,9.662998199E0,1.637633920E0
4.128498281E1,1.149216816E-1,8.245630264E0,4.807557106E0
4.130997812E1,0.000000000E0,9.777919769E0,1.628057122E0
4.133000000E1,-1.532289028E0,1.206677628E1,2.011129409E-1
4.135501562E1,2.595314741E0,1.287122822E1,2.968810201E-1
4.137999375E1,2.710236311E0,1.359906578E1,1.704671621E0
4.140499062E1,1.187524080E0,1.469082165E1,1.005564690E0
4.142998594E1,2.020706177E0,1.543781281E1,-2.001552582E0
4.145498281E1,1.867477298E0,1.150174522E1,-2.614468336E0
4.147499375E1,2.221819162E0,1.022802925E1,-7.469909191E-1
4.149500625E1,1.742978811E0,1.338837624E1,1.666364431E0
4.151999219E1,-6.799532771E-1,1.549527359E1,1.953668594E0
4.154499063E1,-3.361459255E0,1.387679291E1,3.055001259E0
4.156998438E1,-2.135627985E0,1.130063248E1,2.346317768E0
4.159500781E1,1.714248419E0,7.718906403E0,1.426944256E0
4.161997812E1,3.074155092E0,5.698200226E0,1.043871999E0
4.164000000E1,2.700659513E0,5.832275391E0,2.777273953E-1
4.166499688E1,1.187524080E0,5.612008572E0,-1.101332784E0
4.168999219E1,-5.171475410E-1,4.347870350E0,-4.309563041E-1
4.171499063E1,-2.193088770E0,3.361459255E0,1.608903527E0
4.173998594E1,-2.738966703E0,3.275267839E0,2.250549555E0
4.176498281E1,-2.355894566E0,4.127603531E0,2.346317768E0
4.178997969E1,-1.829170108E0,4.979939461E0,3.974374771E0
4.181000156E1,-1.388636947E0,6.234501362E0,6.042964935E0
4.183499844E1,-1.465251446E0,9.346963882E0,9.174580574E0
4.185999375E1,-1.886630893E0,1.493981838E1,1.024718285E1
4.188499219E1,-8.906430602E-1,2.230438232E1,4.606443882E0
4.190998750E1,-2.260126352E0,9.308655739E0,5.717353821E0
4.193498281E1,-3.801992416E0,4.232948780E0,8.676587105E0
4.195997969E1,-9.576806426E-2,1.256477070E1,9.433155060E0
4.198497656E1,7.230489254E0,1.778413010E1,-4.989516258E0
4.200500000E1,5.746084079E-2,7.575253963E0,-9.691728592E0
4.202999531E1,-8.178592682E0,2.346317768E0,-4.022258818E-1
4.205499219E1,-1.810016513E0,4.060565948E0,9.050082207E0
4.207998906E1,-4.596867263E-1,8.906430244E0,2.892195702E0
4.210498594E1,-4.022258818E-1,1.510262394E1,-4.319139957E0
4.212998125E1,2.873042040E-2,1.247857952E1,1.723825186E-1
4.215497812E1,1.082179189E0,7.747636795E0,2.020706177E0
4.217500000E1,9.289502501E-1,5.612008572E0,1.790862918E0
4.219501406E1,1.340752959E0,4.529829502E0,1.838746905E0
4.221998750E1,1.273715258E0,5.861005783E0,5.554547906E-1
4.224498438E1,9.481038451E-1,8.427590370E0,6.512228847E-1
4.226998125E1,2.873041928E-1,1.151132202E1,-3.639186621E-1
4.229498750E1,5.841852427E-1,1.016099167E1,4.309563041E-1
4.231503125E1,1.273715258E0,7.785943985E0,3.543418407E0
4.233999375E1,1.149216816E-1,8.034940720E0,1.963245392E0
4.236499219E1,-2.624045134E0,1.176989555E1,-6.799532771E-1
4.238998906E1,7.661445141E-1,1.211466026E1,5.363011956E-1
4.241498438E1,1.924938202E0,1.396298409E1,1.599326730E0
4.243501094E1,1.110909581E0,1.367568016E1,1.455674648E0
4.245997188E1,1.532289028E0,1.546654320E1,9.959878922E-1
4.247999375E1,2.930502892E0,1.534204483E1,-7.182605267E-1
4.250499219E1,3.179499865E0,1.286165142E1,-2.815581083E0
4.252998750E1,1.321599364E0,1.130063248E1,-5.267243981E-1
4.255500625E1,-1.723825186E-1,1.441309452E1,1.206677675E0
4.257997969E1,-2.308010340E0,1.616564941E1,1.896207690E0
4.260497812E1,-4.185064793E0,1.376187134E1,2.633621931E0
4.262500000E1,-1.637633920E0,1.003649330E1,1.388636947E0
4.264999531E1,1.963245392E0,6.205770969E0,5.363011956E-1
4.267502656E1,2.911349297E0,4.759673119E0,3.064578176E-1
4.269998906E1,1.589749932E0,5.487510204E0,-1.589749932E0
4.272500312E1,2.873041928E-1,5.516240597E0,-1.532289028E0
4.274501719E1,-5.075707436E-1,4.539406300E0,1.915361360E-2
4.276997188E1,-2.250549555E0,3.150769472E0,3.275267839E0
4.278999375E1,-2.767697096E0,2.633621931E0,3.648763418E0
4.281499062E1,-2.097320795E0,3.227383852E0,3.591302633E0
4.283998750E1,-2.001552582E0,4.797980309E0,4.702212334E0
4.286498281E1,-2.126051188E0,6.579266071E0,6.464344501E0
4.288998125E1,-1.235408068E0,1.122401714E1,9.509769440E0
4.291497813E1,9.385270476E-1,2.376963425E1,6.962338448E0
4.293500000E1,-1.225831270E0,1.968033791E1,2.882618904E0
4.295999531E1,-2.873042107E0,8.341399193E0,5.525817394E0
4.298499219E1,-3.457227230E0,2.566584110E0,8.331821442E0
4.300998906E1,1.532289088E-1,1.226788998E1,7.038952827E0
4.303501406E1,5.372588634E0,2.069548035E1,-4.922478676E0
4.305998125E1,-5.257667065E0,8.657433510E0,-5.276820660E0
4.308497812E1,-5.267243862E0,1.177947283E0,3.696647406E0
4.310500156E1,-1.580173135E0,1.915361404E0,7.939172745E0
4.312999688E1,1.455674648E0,7.536946774E0,2.614468336E0
4.315500625E1,2.394201756E0,1.520796967E1,-4.127603531E0
4.317998906E1,8.427590132E-1,1.439394093E1,1.149216816E-1
4.320498750E1,1.819593310E-1,8.264783859E0,2.729389906E0
4.322998281E1,-5.075707436E-1,4.769249916E0,2.078166962E0
4.325497969E1,1.532289088E-1,4.596867085E0,1.369483352E0
4.327500469E1,7.086837292E-1,6.282385349E0,1.024718285E0
4.329999844E1,1.005564690E0,9.519346237E0,4.309563041E-1
4.332499531E1,1.034295082E0,1.119528675E1,2.202665508E-1
4.334999063E1,1.752555609E0,8.370129585E0,1.015141487E0
4.337498750E1,1.982398987E0,7.326257229E0,3.093308687E0
4.339502344E1,3.064578176E-1,8.848969460E0,5.841852427E-1
4.341997500E1,-2.173935175E0,1.216254425E1,-8.810662031E-1
4.343999688E1,-9.768342972E-1,1.252646351E1,3.064578176E-1
4.346499375E1,2.585737944E0,1.292868900E1,1.589749932E0
4.348999063E1,5.171475410E-1,1.402044487E1,7.565677166E-1
4.351498750E1,2.202665508E-1,1.644337654E1,8.714894056E-1
4.353998281E1,2.671929121E0,1.426944256E1,8.236053586E-1
4.356497969E1,4.280832767E0,1.269884586E1,-1.580173135E0
4.358500156E1,3.198653460E0,1.139640045E1,-3.141192675E0
4.360999844E1,-6.799532771E-1,1.078348446E1,-6.991068721E-1
4.363502813E1,-1.810016513E0,1.345541382E1,3.217807055E0
4.365999063E1,-2.758120298E0,1.275630665E1,2.489969730E0
4.368498750E1,-2.308010340E0,1.102290440E1,2.681505919E0
4.370998438E1,9.576806426E-2,8.714894295E0,1.915361404E0
4.373497969E1,2.116474390E0,7.479485989E0,1.158793569E0
4.375499844E1,2.231395960E0,7.058106422E0,6.224924326E-1
4.378000000E1,9.002198577E-1,6.732495308E0,8.619125932E-2
4.380499688E1,-2.298433632E-1,4.836287498E0,1.819593310E-1
4.382999219E1,-1.647210717E0,2.547430515E0,1.886630893E0
4.385498906E1,-2.547430515E0,2.183511972E0,2.978386879E0
4.387501094E1,-2.135627985E0,2.882618904E0,3.246537447E0
4.389997656E1,-1.934514999E0,4.213795185E0,3.964797974E0
4.391999844E1,-2.279279947E0,5.401319027E0,5.142745018E0
4.394499375E1,-1.742978811E0,7.431602001E0,6.406883717E0
4.396999062E1,-3.064578176E-1,1.364694977E1,9.749189377E0
4.399501406E1,-9.576806799E-3,2.453577995E1,6.445190907E0
4.401998281E1,-2.336740971E0,1.433648014E1,3.428496838E0
4.404497969E1,-4.079719543E0,4.050989151E0,6.569689274E0
4.406997656E1,-3.122039080E0,6.042964935E0,7.623138428E0
4.408999844E1,8.331822157E-1,1.299572659E1,2.691082716E0
4.411502500E1,5.190629482E0,1.739148140E1,-3.983951569E0
4.413999219E1,-4.165910721E0,8.705317497E0,-1.752555609E0
4.416498906E1,-2.825158119E0,3.093308687E0,3.782838583E0
4.418998438E1,-1.618480325E0,4.548983097E0,5.497087002E0
4.421498281E1,4.405331016E-1,9.777919769E0,-4.213795066E-1
4.423500000E1,1.417367458E0,1.403959846E1,-2.231395960E0
4.426000000E1,8.331822157E-1,1.247857952E1,-7.661445439E-2
4.428499688E1,9.576806799E-3,7.517793179E0,2.001552582E0
4.430999219E1,2.202665508E-1,4.836287498E0,2.039859772E0
4.433499062E1,1.340752959E0,5.458779812E0,9.768342972E-1
4.435500625E1,1.896207690E0,7.651868820E0,4.596867263E-1
4.437997656E1,1.465251446E0,1.061110210E1,-5.458779931E-1
4.440000000E1,4.788403511E-1,1.073560047E1,-3.830722570E-1
4.442499531E1,0.000000000E0,7.556100368E0,1.886630893E0
4.444999219E1,4.979939461E-1,8.341399193E0,2.844311714E0
4.447500938E1,1.340752989E-1,9.787496567E0,5.746084079E-2
4.449998438E1,-1.570596337E0,1.164539719E1,-2.585737705E-1
4.452498281E1,1.436521053E0,1.206677628E1,1.168370485E0
4.454997812E1,2.576161146E0,1.409705925E1,1.149216771E0
4.457000000E1,7.565677166E-1,1.436521053E1,1.139639974E0
4.459502031E1,1.541865945E0,1.622311020E1,3.256114423E-1
4.461999375E1,2.940079689E0,1.326387787E1,-1.493981838E0
4.464499531E1,2.595314741E0,1.201889229E1,-3.208230257E0
4.466998594E1,3.734954596E-1,1.055364132E1,7.948749661E-1
4.469498281E1,-2.355894566E0,1.291911221E1,2.308010340E0
4.471997813E1,-2.700659513E0,1.315853214E1,2.796427488E0
4.474000156E1,-2.154781580E0,1.270842266E1,2.786850691E0
4.476499844E1,2.011129409E-1,1.078348446E1,1.369483352E0
4.478999375E1,2.940079689E0,8.159439087E0,8.619126081E-1
4.481499062E1,3.284844637E0,6.215347767E0,5.267243981E-1
4.483499531E1,9.481038451E-1,5.889736176E0,9.576806426E-2
4.485997813E1,-3.160346150E-1,5.123591423E0,-7.086837292E-1
4.488000000E1,-1.398213744E0,4.098873138E0,1.819593310E-1
4.490499688E1,-2.451662540E0,3.533841610E0,2.164358377E0
4.492500156E1,-2.451662540E0,3.466804028E0,2.662352324E0
4.494998438E1,-1.656787634E0,3.964797974E0,2.853888512E0
4.497498125E1,-1.177947283E0,4.568136692E0,4.223371983E0
4.499997813E1,-1.446097851E0,6.129156113E0,6.991068840E0
4.502000000E1,-1.053448796E0,8.714894295E0,8.465897560E0
4.504499531E1,3.064578176E-1,1.648168373E1,8.791508675E0
4.506999219E1,-1.503558636E0,2.282153130E1,5.707777023E0
4.509498906E1,-4.750096321E0,1.183693314E1,5.334281445E0
4.511998438E1,-5.324704647E0,6.914454460E0,9.069235802E0
4.514498281E1,-1.685518026E0,1.407790565E1,4.960785866E0
4.516997812E1,5.918466568E0,1.286165142E1,-3.179499865E0
4.519000000E1,6.014234543E0,4.338293552E0,-5.027823448E0
4.521499688E1,-3.792415380E0,7.278373241E-1,-1.331176162E0
4.523999375E1,-5.114014626E0,7.345410824E0,5.688623428E0
4.526499062E1,-3.055001259E0,1.187524033E1,3.457227230E0
4.528998594E1,-1.130063176E0,1.387679291E1,-1.120486379E0
4.531498281E1,1.963245392E0,1.057279491E1,4.118026793E-1
4.533997969E1,2.767697096E0,7.594407558E0,1.043871999E0
4.536000156E1,1.446097851E0,5.908889771E0,1.656787634E0
4.538499844E1,7.565677166E-1,5.200206280E0,1.628057122E0
4.540999531E1,1.149216771E0,8.303091049E0,6.607996821E-1
4.543499219E1,1.264138460E0,9.557653427E0,1.149216816E-1
4.545998750E1,5.458779931E-1,1.178904915E1,-3.160346150E-1
4.548498438E1,-2.202665508E-1,8.877699852E0,2.231395960E0
4.550997969E1,8.044517636E-1,7.872135162E0,3.830722809E0
4.553497656E1,-3.543418646E-1,8.820239067E0,-1.407790542E0
4.555504063E1,-2.489969730E0,1.177947235E1,-6.416460276E-1
4.557999531E1,1.359906554E0,1.200931549E1,1.436521053E0
4.560499219E1,3.055001259E0,1.367568016E1,1.110909581E0
4.562998906E1,-2.681505978E-1,1.383848572E1,1.197100878E0
4.565498594E1,1.704671621E0,1.639549255E1,1.551442742E0
4.567501094E1,2.499546528E0,1.371398735E1,-6.416460276E-1
4.569997188E1,2.681505919E0,1.144428444E1,-2.202665567E0
4.571999375E1,2.719813108E0,1.085052204E1,-1.149216816E-1
4.574499844E1,1.292868972E0,1.520796967E1,9.864110947E-1
4.576998750E1,-2.442085743E0,1.495897198E1,1.130063176E0
4.579502812E1,-3.562572241E0,1.244984913E1,3.064578056E0
4.581998125E1,-1.800439715E0,9.758766174E0,2.020706177E0
4.584497656E1,1.120486379E0,6.138733387E0,1.532289028E0
4.586500000E1,2.154781580E0,4.893748283E0,1.091755986E0
4.588999531E1,2.375048161E0,5.104437828E0,1.532289088E-1
4.591499219E1,7.278373241E-1,5.880159378E0,-6.320692301E-1
4.593998906E1,-4.118026793E-1,4.797980309E0,4.788403213E-2
4.596498438E1,-2.173935175E0,4.137180328E0,2.135627985E0
4.598998125E1,-2.882618904E0,4.003105164E0,3.169923067E0
4.601497813E1,-2.585737944E0,4.510675907E0,3.035847664E0
4.603503125E1,-2.403778553E0,5.114014626E0,3.955221176E0
4.605999688E1,-2.154781580E0,6.483498096E0,6.483498096E0
4.608499375E1,0.000000000E0,9.452308655E0,1.090798283E1
4.610998906E1,2.815581083E0,2.019748497E1,1.051533413E1
4.613498594E1,-1.963245392E0,2.072421074E1,3.236960649E0
4.615500312E1,-4.673481941E0,1.082179165E1,4.941632271E0
4.617997344E1,-4.510675907E0,5.094861031E0,8.628703117E0
4.619999531E1,-2.777273893E0,1.416409683E1,7.249642849E0
4.622499375E1,3.342305660E0,1.671152878E1,-4.223371983E0
4.624998906E1,1.244984865E0,4.070142746E0,-5.085284233E0
4.627500469E1,-4.443638325E0,-1.628057212E-1,1.149216816E-1
4.629998125E1,-2.221819162E0,4.539406300E0,7.824251175E0
4.632498750E1,5.458779931E-1,1.176031876E1,1.206677675E0
4.634502344E1,1.704671621E0,1.759259415E1,-3.620033026E0
4.636999688E1,1.877054095E0,1.244027233E1,-4.596867263E-1
4.639500156E1,1.589749932E0,6.435614109E0,2.116474390E0
4.641999063E1,5.171475410E-1,4.098873138E0,1.867477298E0
4.643999531E1,4.405331016E-1,4.280832767E0,1.570596337E0
4.646497812E1,5.746083856E-1,6.962338448E0,8.331822157E-1
4.648500000E1,1.158793569E0,9.433155060E0,1.819593310E-1
4.650999688E1,1.235408068E0,1.156878281E1,-3.734954596E-1
4.653499375E1,1.024718285E0,8.370129585E0,1.417367458E0
4.655998906E1,1.331176162E0,8.427590370E0,2.279279947E0
4.658498594E1,-4.979939461E-1,1.012268448E1,-2.873042040E-2
4.660998125E1,-2.135627985E0,1.117613316E1,1.206677675E0
4.663500625E1,2.595314741E0,1.115697956E1,4.309563041E-1
4.665997500E1,2.863465309E0,1.366610336E1,-2.968810201E-1
4.667999688E1,0.000000000E0,1.394383049E1,9.002198577E-1
4.670499375E1,1.283292055E0,1.679771996E1,1.015141487E0
4.672999063E1,2.758120298E0,1.421198082E1,-1.474828243E0
4.675500156E1,2.566584110E0,1.260307789E1,-4.022258759E0
4.677998281E1,2.087743998E0,1.076433086E1,-9.768342972E-1
4.680497969E1,-1.321599364E0,1.153047562E1,1.321599364E0
4.682500312E1,-7.948749661E-1,1.249773312E1,2.375048161E0
4.684999844E1,-2.355894566E0,1.257434750E1,2.126051188E0
4.687499531E1,-1.331176162E0,1.031422138E1,2.298433542E0
4.689500000E1,-2.202665508E-1,8.044517517E0,1.656787634E0
4.691998906E1,2.413355350E0,6.234501362E0,8.523358107E-1
4.694500000E1,2.365471363E0,6.291962147E0,4.118026793E-1
4.696502656E1,1.321599364E0,6.789956093E0,-1.723825186E-1
4.698999688E1,-3.064578176E-1,5.918466568E0,1.915361360E-2
4.701499375E1,-1.944091797E0,4.989516258E0,1.580173135E0
4.703999062E1,-2.978386879E0,4.510675907E0,2.566584110E0
4.706498750E1,-2.126051188E0,4.290409565E0,2.892195702E0
4.708998281E1,-1.723825216E0,4.309563160E0,3.821146011E0
4.711500156E1,-1.790862918E0,4.979939461E0,5.583278179E0
4.713500156E1,-1.398213744E0,6.119579315E0,7.517793179E0
4.715999844E1,1.350329757E0,1.251688671E1,1.106121159E1
4.718499375E1,5.746083856E-1,2.477519989E1,6.291962147E0
4.720999062E1,-5.171475887E0,1.509304714E1,2.729389906E0
4.723502188E1,-5.803544998E0,5.056553841E0,7.738059998E0
4.725998281E1,-2.767697096E0,1.097502041E1,7.594407558E0
4.728498125E1,4.299986362E0,1.625184059E1,-1.015141487E0
4.730997656E1,4.539406300E0,7.603984833E0,-3.782838583E0
4.733000000E1,-2.461239338E0,2.777273893E0,-2.940079689E0
4.735499531E1,-4.979939461E0,2.949656487E0,3.983951569E0
4.737999219E1,-1.599326730E0,9.174580574E0,4.050989151E0
4.740498906E1,4.788403511E-1,1.371398735E1,-2.355894566E0
4.743000938E1,1.091755986E0,1.175074196E1,-2.394201756E-1
4.745498281E1,1.618480325E0,8.427590370E0,1.398213744E0
4.747997812E1,6.320692301E-1,6.081272125E0,1.857900500E0
4.750000000E1,8.810662031E-1,5.497087002E0,1.436521053E0
4.752499688E1,1.426944256E0,6.569689274E0,5.267243981E-1
4.754999219E1,9.097966552E-1,9.088389397E0,-2.011129409E-1
4.757499063E1,3.064578176E-1,1.099417400E1,-3.830722570E-1
4.759998594E1,1.244984865E0,8.925583839E0,2.068590164E0
4.762498281E1,2.020706177E0,8.169015884E0,2.643198729E0
4.764997813E1,-5.841852427E-1,9.203310966E0,8.619125932E-2
4.767000156E1,-2.499546528E0,1.050575733E1,4.979939461E-1
4.769499844E1,3.447650373E-1,1.254561710E1,8.427590132E-1
4.771501562E1,3.600879431E0,1.256477070E1,5.171475410E-1
4.773998594E1,1.714248419E0,1.376187134E1,1.053448766E-1
4.776498281E1,-2.106897533E-1,1.451843929E1,1.561019540E0
4.778997813E1,2.461239338E0,1.498770237E1,-2.777273953E-1
4.781000000E1,3.256114244E0,1.219127464E1,-1.829170108E0
4.783501406E1,4.338293552E0,1.094629002E1,-1.522712231E0
4.785999375E1,1.972822189E0,1.176031876E1,1.340752989E-1
4.788499062E1,-4.405331016E-1,1.554315758E1,1.800439715E0
4.790998594E1,-2.806004286E0,1.206677628E1,1.829170108E0
4.793498281E1,-2.585737944E0,1.019929886E1,3.313575268E0
4.795997969E1,-7.374141216E-1,8.274360657E0,3.169923067E0
4.798000156E1,1.331176162E0,6.991068840E0,2.145204782E0
4.800499844E1,2.087743998E0,6.196194172E0,8.619126081E-1
4.802999531E1,1.177947283E0,6.177040577E0,-2.202665508E-1
4.805499219E1,-7.661445439E-2,4.625597477E0,3.830722719E-2
4.807998594E1,-2.135627985E0,3.303998232E0,1.972822189E0
4.810498438E1,-2.662352324E0,3.438073635E0,2.681505919E0
4.812997969E1,-1.235408068E0,4.357447147E0,2.949656487E0
4.815497656E1,-1.101332784E0,5.075707436E0,4.280832767E0
4.817500000E1,-1.110909581E0,5.726930618E0,5.487510204E0
4.819502031E1,-8.236053586E-1,7.096413612E0,6.751648903E0
4.821998594E1,9.576806799E-3,1.247857952E1,9.624691010E0
4.824498438E1,2.298433632E-1,2.350148392E1,5.382165432E0
4.826997969E1,-3.418920040E0,1.541865921E1,3.380612850E0
4.829000156E1,-4.175487995E0,6.512228489E0,6.895300865E0
4.831499688E1,-4.434061527E0,7.900865555E0,8.418013573E0
4.833999531E1,-8.523358107E-1,1.701798630E1,1.695094824E0
4.836499063E1,3.849876404E0,1.330218506E1,-2.662352324E0
4.838998750E1,-1.982398987E0,3.955221176E0,-1.608903527E0
4.841498438E1,-5.075707436E-1,4.127603531E0,6.598419666E0
4.843501094E1,6.703764945E-2,5.363011837E0,6.291962147E0
4.845997188E1,1.637633920E0,1.261265469E1,-9.959878922E-1
4.847999375E1,1.082179189E0,1.595495987E1,-2.786850691E0
4.850499063E1,3.830722719E-2,1.112824917E1,1.532289028E0
4.852998594E1,-9.576806426E-2,6.358999729E0,2.327163935E0
4.855500000E1,8.714894056E-1,4.788403511E0,1.829170108E0
4.857997969E1,1.206677675E0,5.487510204E0,1.273715258E0
4.860000156E1,1.197100878E0,7.077260017E0,4.405331016E-1
4.862499844E1,1.110909581E0,1.032379818E1,2.489969730E-1
4.864999531E1,1.244984865E0,1.095586681E1,-4.788403213E-2
4.867502969E1,8.140285611E-1,7.517793179E0,8.810662031E-1
4.869998750E1,1.532289088E-1,8.188169479E0,2.106897593E0
4.872498438E1,1.915361360E-2,1.032379818E1,2.394201756E-1
4.874997969E1,-1.072602391E0,1.180820274E1,-3.734954596E-1
4.877497813E1,1.580173135E0,1.199016190E1,1.158793569E0
4.879500000E1,2.671929121E0,1.283292103E1,9.002198577E-1
4.881999531E1,-6.703764945E-2,1.299572659E1,1.455674648E0
4.884499375E1,1.752555609E0,1.599326706E1,1.302445769E0
4.886998906E1,3.744531393E0,1.448970890E1,-1.570596337E0
4.889498594E1,3.782838583E0,1.247857952E1,-3.581725836E0
4.891998281E1,2.355894566E0,1.028549004E1,-1.675941229E0
4.894497813E1,-6.416460276E-1,1.167412758E1,1.187524080E0
4.896500000E1,-9.289502501E-1,1.391510010E1,2.566584110E0
4.898999688E1,-3.169923067E0,1.413536644E1,3.122039080E0
4.901499375E1,-1.446097851E0,1.105163479E1,2.911349297E0
4.903501094E1,0.000000000E0,8.236053467E0,2.250549555E0
4.905998125E1,2.537853718E0,6.129156113E0,8.044517636E-1
4.908497813E1,2.442085743E0,5.966350555E0,4.213795066E-1
4.910501094E1,1.216254473E0,5.985504150E0,-3.830722719E-2
4.912999531E1,-3.351882398E-1,4.261679173E0,4.884171486E-1
4.915501875E1,-2.145204782E0,3.074155092E0,2.317587137E0
4.917998750E1,-2.940079689E0,3.064578056E0,3.016694069E0
4.920498594E1,-1.647210717E0,3.620033026E0,3.265691042E0
4.922998125E1,-1.580173135E0,4.070142746E0,5.046977043E0
4.925497812E1,-2.193088770E0,5.295974255E0,7.058106422E0
4.927502813E1,-1.455674648E0,7.584830761E0,8.743624687E0
4.929999688E1,2.978386879E0,1.765963173E1,1.021845245E1
4.932499375E1,-2.298433632E-1,2.449747086E1,2.920926094E0
4.934998906E1,-4.606443882E0,1.253604031E1,5.008669853E0
4.937498594E1,-6.052541733E0,4.759673119E0,1.059194851E1
4.939998281E1,-3.016694069E0,1.171243477E1,7.824251175E0
4.942497812E1,7.996633530E0,9.892841339E0,-5.669469833E0
4.944504531E1,5.861005783E0,6.636727333E0,-7.603984833E0
4.946999844E1,-3.514688015E0,1.656787634E0,-3.371036053E0
4.949499531E1,-2.202665508E-1,6.789956093E0,6.406883717E0
4.951999063E1,-1.149216771E0,1.220085144E1,2.183511972E0
4.954498750E1,-3.706224203E0,1.413536644E1,-2.403778553E0
4.956998281E1,2.777273953E-1,1.015141487E1,9.768342972E-1
4.959498125E1,1.225831270E0,7.230489254E0,1.283292055E0
4.961997656E1,1.244984865E0,4.558559895E0,1.369483352E0
4.963999844E1,1.541865945E0,4.453215122E0,5.363011956E-1
4.966499531E1,1.197100878E0,6.971915245E0,4.501099288E-1
4.968999219E1,2.020706177E0,1.014183807E1,8.427590132E-1
4.971498906E1,2.413355350E0,1.161666679E1,2.394201756E-1
4.973998438E1,6.703764945E-2,8.226476669E0,1.446097851E0
4.976498281E1,-1.101332784E0,8.389283180E0,2.097320795E0
4.978997813E1,-1.790862918E0,1.109951878E1,1.091755986E0
4.981000000E1,-5.363011956E-1,1.263180828E1,4.213795066E-1
4.983499688E1,3.840299606E0,1.235408115E1,3.926490843E-1
4.985999375E1,2.432508945E0,1.327345467E1,1.082179189E0
4.988498906E1,1.857900500E0,1.516008472E1,2.499546528E0
4.990998594E1,5.861005783E0,1.642422295E1,-4.692635238E-1
4.993498281E1,4.395754337E0,1.473870564E1,-3.907337189E0
4.995997813E1,9.193734527E-1,1.119528675E1,-5.544970989E0
4.998000156E1,-2.068590164E0,8.963891029E0,-2.106897593E0
5.000499844E1,-2.365471363E0,1.178904915E1,3.744531393E0
5.002999375E1,-2.116474390E0,1.377144814E1,2.001552582E0
5.005499062E1,-1.800439715E0,1.297657299E1,2.451662540E0
5.007998594E1,2.681505978E-1,8.877699852E0,1.417367458E0
5.010498438E1,2.959233284E0,6.062118530E0,9.289502501E-1
5.012997969E1,2.748543501E0,5.391742229E0,9.768342972E-1
5.015000156E1,1.493981838E0,5.564124584E0,8.044517636E-1
5.017500000E1,-4.788403511E-1,4.414907932E0,1.455674648E0
5.019999375E1,-2.183511972E0,3.438073635E0,2.202665567E0
5.022499063E1,-2.480392933E0,3.629609823E0,2.595314741E0
5.024998750E1,-1.561019540E0,4.118026733E0,2.442085743E0
5.027498594E1,-1.666364431E0,4.070142746E0,3.620033026E0
5.029998125E1,-2.566584110E0,4.510675907E0,6.560112476E0
5.032497812E1,-2.308010340E0,6.655880928E0,8.599972725E0
5.034500000E1,-1.589749932E0,1.075475407E1,1.199016190E1
5.036999688E1,9.097966552E-1,2.919010735E1,7.508216381E0
5.039499375E1,-4.510675907E0,1.540908241E1,2.662352324E0
5.041998906E1,-5.401319027E0,8.034940720E0,1.023760605E1
