"Time (s)","Linear Acceleration x (m/s^2)","Linear Acceleration y (m/s^2)","Linear Acceleration z (m/s^2)"
1.999062500E-2,2.022099972E0,3.027499914E0,-6.766999960E-1
4.999375000E-2,1.859799981E0,3.192799807E0,6.947000027E-1
7.999531200E-2,2.804199934E0,5.434599876E0,-5.194000006E-1
1.099968750E-1,1.801399946E0,1.728500009E0,-3.415599823E0
1.399984370E-1,-6.046000123E-1,1.411799908E0,-4.312099934E0
1.700015620E-1,-2.390999943E-1,6.296499729E0,2.825999975E0
1.999718750E-1,-4.458499908E0,5.749599934E0,3.155400038E0
2.199937500E-1,-3.094699860E0,2.451200008E0,1.716199994E0
2.499953120E-1,1.396099925E0,-3.343999863E0,4.403999746E-1
2.799984370E-1,9.156000018E-1,-3.642199993E0,-1.163399935E0
3.100000000E-1,8.333999515E-1,-3.671399832E0,-3.057299852E0
3.400031250E-1,2.499999944E-3,-5.655299664E0,-1.220999956E0
3.699734370E-1,-1.863999963E0,-6.440499783E0,9.171999693E-1
3.899953120E-1,-2.204699993E0,-6.154599667E0,1.547199965E0
4.199984370E-1,-1.595999956E0,-3.864899874E0,2.426699877E0
4.449937500E-1,-7.705999613E-1,-2.844099998E0,2.846199989E0
4.749968750E-1,-1.049299955E0,-2.141700029E0,3.365399837E0
5.049968750E-1,-9.027999640E-1,1.325699925E0,5.385099888E0
5.350000000E-1,2.196099997E0,9.185899734E0,3.986199856E0
5.650015620E-1,1.714100003E0,5.549299717E0,5.559999943E0
5.949718750E-1,-3.827999830E-1,1.302099943E0,5.295399666E0
6.149937500E-1,-9.292999506E-1,5.073999882E0,3.648299932E0
6.449968750E-1,1.082099915E0,2.155699968E0,-2.848099947E0
6.749984370E-1,-1.884699941E0,-8.629599571E0,-1.961199999E0
7.050015620E-1,-1.192899942E0,-6.743499756E0,1.282799959E0
7.349718750E-1,3.404299974E0,3.877499819E0,4.243799686E0
7.549937500E-1,5.491699696E0,4.199100018E0,1.137899995E0
7.849968750E-1,3.470999956E0,1.960699916E0,-2.574999928E-1
8.149984370E-1,1.824399948E0,-3.049799919E0,1.731499910E0
8.450000000E-1,2.204200029E0,-3.560899973E0,2.832199812E0
8.750015620E-1,2.234599829E0,-7.933999896E-1,-3.132999837E-1
9.049734370E-1,2.825199842E0,2.628999949E-1,2.003999949E0
9.249953120E-1,2.409999847E0,-1.231799960E0,4.148499966E0
9.549968750E-1,2.058599949E0,-3.013900042E0,4.233900070E0
9.849984370E-1,2.904500008E0,-2.527099848E0,4.133899689E0
1.015001562E0,2.012300014E0,1.376099944E0,2.005499840E0
1.044971875E0,3.396899939E0,3.521600008E0,3.471899986E0
1.064993750E0,1.947699904E0,4.318299770E0,5.390999794E0
1.094995312E0,-3.677999973E-1,3.906999826E0,4.776499748E0
1.124996875E0,5.105999947E0,7.343099594E0,3.648799896E0
1.155000000E0,4.452199936E0,2.980899811E0,2.735499859E0
1.185001562E0,7.102599621E0,1.320400000E0,2.452399969E0
1.214973437E0,5.887499809E0,8.651000023E0,2.916100025E0
1.234995312E0,7.598999739E-1,8.952099800E0,2.739199877E0
1.264996875E0,-8.402000070E-1,8.683999777E-1,1.957299948E0
1.294998437E0,5.396999717E-1,-3.251799822E0,1.620000005E0
1.325001562E0,2.655900002E0,-3.991999865E0,3.739999980E-2
1.354971875E0,2.745299816E0,-2.585700035E0,-1.424899936E0
1.374993750E0,2.953699827E0,-3.183099985E0,-2.072399855E0
1.404996875E0,2.362099886E0,-5.751800060E0,-8.249999881E-1
1.434998437E0,4.799999893E-1,-6.124099731E0,1.060799956E0
1.465000000E0,1.392099977E0,-5.381000042E0,5.133000016E-1
1.495001562E0,2.533999920E0,-4.778399944E0,2.220799923E0
1.524973437E0,2.000200033E0,-3.212299824E0,4.804999828E0
1.544995312E0,4.403999746E-1,-9.194999933E-1,7.440299988E0
1.574996875E0,1.047299981E0,1.275500011E1,8.350799561E0
1.605000000E0,1.832499981E0,1.070440006E1,2.294499874E0
1.635001562E0,-9.037999511E-1,-1.166700006E0,3.006099939E0
1.664971875E0,-1.148100019E0,3.589399815E0,3.319499969E0
1.684993750E0,3.971699953E0,4.756099701E0,-1.901799917E0
1.714996875E0,2.486099958E0,-5.446399689E0,-4.825900078E0
1.744998437E0,-1.017000005E-1,-4.728300095E0,3.685999870E0
1.775000000E0,3.085700035E0,2.833999991E-1,4.251999855E0
1.805001562E0,4.081500053E0,5.812999725E0,-1.404999971E0
1.834971875E0,3.989099979E0,2.324499846E0,5.414999723E-1
1.854993750E0,3.741199970E0,-1.915799975E0,2.183300018E0
1.884996875E0,2.435699940E0,-5.785799980E0,4.338099957E0
1.915000000E0,2.303200006E0,-4.165100098E0,2.385400057E0
1.945001562E0,3.072000027E0,-8.089999557E-1,1.152199984E0
1.974971875E0,2.587299824E0,4.519999921E-1,6.025999784E-1
1.994993750E0,1.769099951E0,-1.528599977E0,2.047999859E0
2.024996875E0,1.441799998E0,-6.376000047E-1,4.145800114E0
2.054998437E0,1.122999936E-1,1.840999961E0,3.648099899E0
2.085000000E0,2.926100016E0,2.523799896E0,3.682799816E0
2.114970312E0,4.979799747E0,3.823699951E0,4.702799797E0
2.134993750E0,3.634899855E0,4.725399971E0,4.718699932E0
2.164995312E0,4.691499710E0,5.924599648E0,4.321799755E0
2.194998437E0,5.266599655E0,5.427000046E0,2.072599888E0
2.225000000E0,3.175499916E0,3.586199999E0,-5.794999599E-1
2.255001562E0,1.329499960E0,2.879799843E0,2.306999922E0
2.284971875E0,-2.080999911E-1,4.269199848E0,2.338899851E0
2.304995312E0,-1.708199978E0,4.170099735E0,2.889499903E0
2.334995312E0,-7.379999757E-1,1.348599911E0,2.015599966E0
2.364998437E0,2.791399956E0,-2.364899874E0,1.084999919E0
2.395000000E0,4.373699665E0,-3.671700001E0,-7.149999589E-2
2.435006250E0,2.762799978E0,-2.256399870E0,-2.064199924E0
2.464984375E0,1.887799978E0,-4.764999866E0,-7.220000029E-1
2.494985937E0,5.777999759E-1,-6.487299919E0,1.107599974E0
2.524987500E0,7.627999783E-1,-6.522999763E0,7.709999681E-1
2.554990625E0,6.862999797E-1,-5.557799816E0,1.697199941E0
2.584992187E0,2.987000048E-1,-3.869099855E0,3.323299885E0
2.614993750E0,-1.207999945E0,1.105000004E-1,7.195099831E0
2.644996875E0,1.228699923E0,1.731699944E1,8.026399612E0
2.674998437E0,-4.949999973E-2,5.074399948E0,3.245199919E0
2.705000000E0,-4.829599857E0,-2.199800014E0,5.666899681E0
2.734970312E0,8.883999586E-1,7.657299995E0,6.154999733E-1
2.754993750E0,7.960899830E0,2.285199881E0,-5.879099846E0
2.784995312E0,1.325500011E0,-7.431099892E0,-5.710599899E0
2.814996875E0,3.738699913E0,-3.050400019E0,6.721399784E0
2.845000000E0,3.723999977E0,6.320999861E-1,2.547799826E0
2.875001562E0,4.830999970E-1,7.180699825E0,-2.519299984E0
2.904971875E0,1.253199935E0,-1.148699999E0,2.951999903E0
2.924993750E0,2.048199892E0,-4.793399811E0,3.207000017E0
2.954996875E0,2.214599848E0,-5.711299896E0,2.444200039E0
2.984998437E0,1.977599978E0,-3.081399918E0,1.014199972E0
3.015000000E0,2.223899841E0,1.354999989E-1,8.966999650E-1
3.044970312E0,1.395399928E0,1.043799996E0,3.465199947E0
3.064993750E0,1.989699960E0,-1.353399992E0,5.487199783E0
3.094995312E0,-4.219999909E-2,-5.647999644E-1,2.099200010E0
3.124998437E0,-8.774999976E-1,4.564599991E0,5.049299717E0
3.155000000E0,4.784199715E0,2.557199955E0,5.665499687E0
3.185001562E0,3.123600006E0,3.894299984E0,4.023699760E0
3.214973437E0,3.208400011E0,4.990099907E0,4.291999817E0
3.234995312E0,4.849699974E0,7.841199875E0,3.380599976E0
3.264996875E0,4.665999889E0,4.354899883E0,2.018999904E-1
3.294998437E0,1.352399945E0,2.819499969E0,-7.087000012E-1
3.325000000E0,-1.172999978E0,2.158299923E0,3.226899862E0
3.354971875E0,-1.659099936E0,3.967199802E0,3.244599819E0
3.374992187E0,-1.892599940E0,3.021899939E0,1.564099908E0
3.404995312E0,1.219299912E0,-1.223999932E-1,4.962999821E-1
3.434998437E0,2.407699823E0,-3.132099867E0,-7.249999791E-2
3.465000000E0,1.813499928E0,-2.883699894E0,-2.118499994E0
3.495001562E0,8.393999934E-1,-3.792599916E0,-2.340899944E0
3.524971875E0,-9.462999701E-1,-5.958399773E0,-6.849999726E-2
3.544995312E0,-1.225399971E0,-6.541599751E0,2.960999906E-1
3.574996875E0,2.906000018E-1,-5.923599720E0,-3.107999861E-1
3.604998437E0,2.579999901E-2,-5.238599777E0,6.114000082E-1
3.635000000E0,-2.741000056E-1,-4.108500004E0,2.900899887E0
3.664971875E0,-8.344999552E-1,-1.641999930E-1,7.143099785E0
3.684992187E0,2.687000036E-1,9.549900055E0,8.673799515E0
3.714995312E0,3.039000034E-1,1.394950008E1,1.745599985E0
3.744998437E0,-3.597800016E0,-4.487100124E0,5.324500084E0
3.775000000E0,-3.511899948E0,-3.084800005E0,6.264199734E0
3.805001562E0,8.238399506E0,4.806799889E0,-2.658599854E0
3.834973437E0,1.269799948E0,-8.355999589E-1,-1.037099934E1
3.854995312E0,-3.289599895E0,-1.620399952E0,-2.852799892E0
3.884995312E0,1.095499992E0,-9.827999473E-1,5.179500103E0
3.915000000E0,-9.409999847E-2,2.247400045E0,-3.184700012E0
3.945000000E0,9.521999955E-1,1.644299984E0,-1.394999981E0
3.974971875E0,3.842799902E0,-6.665999889E-1,2.043400049E0
3.994993750E0,2.849599838E0,-2.700000048E0,3.099099874E0
4.024996875E0,1.321599960E0,-5.312200069E0,2.654899836E0
4.054996875E0,5.717999935E-1,-3.020999908E0,1.615499973E0
4.085000000E0,8.517999649E-1,4.273999929E-1,7.372999787E-1
4.115001562E0,4.306999743E-1,-5.155999660E-1,2.189599991E0
4.144973437E0,5.198999643E-1,-1.553299904E0,4.541100025E0
4.164995312E0,-7.899999619E-2,-4.862999916E-1,3.034399986E0
4.194996875E0,1.489999983E-2,2.110199928E0,3.604300022E0
4.224998437E0,3.805399895E0,2.544499874E0,2.864899874E0
4.255000000E0,2.284699917E0,3.708299875E0,3.550999880E0
4.284971875E0,2.701799870E0,7.341599941E0,3.424799919E0
4.304993750E0,3.401299953E0,6.942499638E0,2.317100048E0
4.334996875E0,1.966499925E0,3.745599985E0,-8.628000021E-1
4.364998437E0,-1.304999948E0,8.930999637E-1,-9.221999645E-1
4.395000000E0,-8.157999516E-1,1.670399904E0,3.167500019E0
4.429979687E0,-2.486299992E0,3.132200003E0,2.132799864E0
4.449998437E0,-2.040699959E0,2.179100037E0,1.532499909E0
4.480000000E0,1.108299971E0,-5.838999748E-1,-3.958999813E-1
4.509971875E0,2.008100033E0,-2.460599899E0,-1.463799953E0
4.529992187E0,1.289199948E0,-2.303799868E0,-2.326999903E0
4.559995312E0,5.938000083E-1,-3.325299978E0,-2.315700054E0
4.589998437E0,-7.328000069E-1,-5.592000008E0,-4.147999883E-1
4.619998437E0,-1.498299956E0,-6.034199715E0,-3.291999996E-1
4.650001562E0,-6.929000020E-1,-4.837899685E0,-1.114099979E0
4.679971875E0,5.895999670E-1,-3.761099815E0,3.204999864E-1
4.699993750E0,1.111799955E0,-3.014899969E0,1.698599935E0
4.729996875E0,-3.563999832E-1,-1.559399962E0,3.935199976E0
4.759998437E0,-1.578400016E0,4.572700024E0,5.939799786E0
4.790001562E0,8.143000007E-1,1.233229923E1,2.800299883E0
4.819971875E0,-1.829599977E0,3.731999993E-1,2.993199825E0
4.839993750E0,-2.353499889E0,-3.378700018E0,3.644799948E0
4.869995312E0,1.325899959E0,6.139499664E0,-1.245800018E0
4.899996875E0,1.667199969E0,2.565099955E0,-8.484099388E0
4.929998437E0,-5.369499683E0,-6.722499847E0,-1.498299956E0
4.960001562E0,-9.623000026E-1,-3.127799988E0,4.770400047E0
4.989973437E0,2.858799934E0,1.333199978E0,-1.850899935E0
5.009995312E0,4.407299995E0,5.070099831E0,-4.166299820E0
5.039996875E0,3.541100025E0,1.373299956E0,-3.272999823E-1
5.069998437E0,1.208599925E0,-4.983699799E0,2.631599903E0
5.100001562E0,-2.467999905E-1,-6.149699688E0,1.914099932E0
5.129971875E0,2.574999928E-1,-2.229699850E0,-1.775999963E-1
5.149993750E0,1.112100005E0,1.052999943E-1,-5.838999748E-1
5.179995312E0,4.948999882E-1,1.488000005E-1,7.479999959E-2
5.209996875E0,2.525999844E-1,-2.264600039E0,2.280599833E0
5.240000000E0,-8.720000088E-2,-2.395000011E-1,2.280099869E0
5.270001562E0,-4.169999808E-2,2.217900038E0,2.425199986E0
5.299973437E0,2.665699959E0,1.833699942E0,3.091199875E0
5.319995312E0,2.586899996E0,2.601999998E0,2.815500021E0
5.349996875E0,1.612900019E0,4.336999893E0,2.636199951E0
5.379998437E0,3.063899994E0,7.130599976E0,1.995299935E0
5.410001562E0,2.165400028E0,3.841099977E0,-3.071499825E0
5.439971875E0,1.362999976E-1,1.056999922E0,-2.233700037E0
5.459993750E0,-2.465199947E0,5.015999675E-1,-2.707000077E-1
5.489996875E0,-1.706099987E0,2.878799915E0,2.098700047E0
5.519998437E0,-2.607100010E0,2.726399899E0,6.754999757E-1
5.550000000E0,-2.931999862E-1,3.298999965E-1,-3.942999840E-1
5.580001562E0,2.151200056E0,-2.202800035E0,-2.006099939E0
5.609971875E0,1.447899938E0,-2.374099970E0,-3.501399994E0
5.629995312E0,9.300999641E-1,-2.908399820E0,-3.748600006E0
5.659996875E0,-3.039999902E-1,-5.432699680E0,-2.601099968E0
5.689998437E0,-6.948999763E-1,-6.055199623E0,-1.312099934E0
5.720000000E0,-4.273999929E-1,-5.161499977E0,-1.046700001E0
5.749971875E0,-1.011500001E0,-3.900199890E0,-5.978999734E-1
5.769993750E0,-1.073699951E0,-2.697899818E0,6.750000119E-1
5.799996875E0,-1.026999950E-1,1.236500025E0,5.313699722E0
5.829996875E0,5.532000065E-1,1.350360012E1,4.579699993E0
5.860000000E0,-1.716399908E0,5.641499996E0,-8.344999552E-1
5.890003125E0,-2.483999968E0,-4.985799789E0,1.374199986E0
5.919973437E0,-1.060699940E0,3.190399885E0,1.656399965E0
5.939995312E0,3.379299879E0,7.466499805E0,-4.690599918E0
5.969996875E0,-7.516999841E-1,-7.265999913E-1,-7.289000034E0
6.000000000E0,-2.604599953E0,-3.955799818E0,3.928099871E0
6.030001562E0,7.726999521E-1,-2.808899879E0,4.993700027E0
6.059971875E0,2.820799828E0,3.146299839E0,-3.187500000E0
6.079993750E0,3.262699842E0,5.756299973E0,-3.530499935E0
6.109995312E0,2.153100014E0,-2.574999928E-1,-2.062999904E-1
6.139998437E0,1.370499969E0,-5.621399879E0,2.286799908E0
6.170000000E0,3.725000024E-1,-5.466599941E0,1.539999992E-1
6.200001562E0,-1.644999981E-1,-8.980000019E-1,-9.656999707E-1
6.229973437E0,-2.211999893E-1,-1.863999963E-1,5.909000039E-1
6.249993750E0,-3.086999953E-1,-1.714899898E0,8.188999891E-1
6.279996875E0,4.379999936E-1,-1.222800016E0,1.831399918E0
6.309998437E0,4.343999922E-1,1.264799953E0,2.603999853E0
6.340001562E0,1.588199973E0,7.629999518E-2,6.557999849E-1
6.369971875E0,2.521299839E0,1.752399921E0,1.633599997E0
6.389993750E0,1.813300014E0,3.386999846E0,2.103600025E0
6.419995312E0,2.656699896E0,6.409499645E0,3.086199999E0
6.449998437E0,2.070999861E0,4.973999977E0,1.139500022E0
6.480000000E0,1.123499990E0,1.440899968E0,8.399999700E-3
6.509970312E0,2.381999969E0,1.249699950E0,6.915000081E-1
6.529993750E0,1.171000004E0,2.664000034E0,7.348999977E-1
6.559995312E0,-2.071300030E0,3.688099861E0,1.501399994E0
6.589996875E0,-4.211999774E-1,1.356499910E0,-9.504999518E-1
6.620000000E0,-5.555999875E-1,-2.190299988E0,-2.534800053E0
6.650000000E0,-1.018499970E0,-3.510200024E0,-3.186199903E0
6.679973437E0,-1.394999921E-1,-3.217299938E0,-3.043099880E0
6.699995312E0,3.940999806E-1,-3.800799847E0,-3.248399973E0
6.729995312E0,-5.881999731E-1,-3.092399836E0,-1.904199958E0
6.759998437E0,-9.526000023E-1,-2.902400017E0,-7.493000031E-1
6.790001562E0,-1.581299901E0,-2.674499989E0,4.089999944E-2
6.819970312E0,-7.899000049E-1,-2.083299875E0,-9.420000017E-2
6.839993750E0,1.077999994E-1,-1.506999969E0,8.649999499E-1
6.869995312E0,1.693099976E0,1.621699929E0,2.686399937E0
6.899996875E0,2.514999866E0,5.907099724E0,3.542000055E-1
6.930000000E0,4.095000029E-1,2.520400047E0,3.075699806E0
6.960001562E0,-4.344399929E0,1.268299937E0,2.124799967E0
6.989971875E0,3.216399908E0,6.139999866E0,-5.260799885E0
7.009995312E0,-9.903999567E-1,3.621699810E0,-7.999899864E0
7.039995312E0,-4.707299709E0,-4.150300026E0,-1.659099936E0
7.069998437E0,-1.013100028E0,-1.281299949E0,2.204900026E0
7.100000000E0,9.942999482E-1,8.518999815E-1,-1.173799992E0
7.129971875E0,1.507399917E0,1.754499912E0,-4.537999928E-1
7.149992187E0,1.926999927E0,-1.000999957E-1,3.847999871E-1
7.179995312E0,1.789099932E0,-2.255199909E0,7.820000052E-1
7.209996875E0,2.060799837E0,-2.665599823E0,-1.867999882E-1
7.239998437E0,-1.701699972E0,-8.499000072E-1,2.471999973E-1
7.270001562E0,-1.324999928E-1,-8.287999630E-1,1.539199948E0
7.299971875E0,2.385400057E0,-2.695199966E0,9.923999906E-1
7.319995312E0,-3.926999867E-1,-1.593199968E0,1.362900019E0
7.349996875E0,3.815799952E0,-7.982999682E-1,1.900799990E0
7.379998437E0,1.074999928E0,-8.872999549E-1,1.541299939E0
7.410000000E0,3.752999902E-1,3.436100006E0,2.678000033E-1
7.439971875E0,5.049999952E-1,1.842799902E0,1.167299986E0
7.459993750E0,-5.468999743E-1,2.174700022E0,1.632799983E0
7.489995312E0,2.504600048E0,5.571399689E0,-5.261999965E-1
7.519998437E0,9.236999750E-1,3.477900028E0,-1.459499955E0
7.550000000E0,2.133999914E-1,9.478999972E-1,1.593699932E0
7.580001562E0,1.699399948E0,2.654500008E0,2.779399872E0
7.609971875E0,4.773999751E-1,4.921400070E0,1.032500029E0
7.629993750E0,-1.678200006E0,2.942499876E0,-9.902999997E-1
7.659996875E0,-2.428099871E0,-4.639999866E-1,-1.651499987E0
7.689998437E0,-1.830399990E0,-1.957899928E0,-2.078500032E0
7.720000000E0,-8.963999748E-1,-2.559399843E0,-2.552599907E0
7.749971875E0,-6.006999612E-1,-3.565999985E0,-2.057999849E0
7.769992187E0,-1.021399975E0,-3.849799871E0,-2.629299879E0
7.799996875E0,-1.657400012E0,-4.497200012E0,-1.551899910E0
7.829998437E0,-4.576999843E-1,-3.976399899E0,-2.918999791E-1
7.860000000E0,4.986999929E-1,-2.936599970E0,5.162000060E-1
7.890001562E0,1.376799941E0,-1.459299922E0,1.518899918E0
7.919971875E0,4.931999743E-1,1.237699986E0,2.934000015E0
7.939995312E0,-4.860999882E-1,4.031899929E0,3.263599873E0
7.969996875E0,1.945499897E0,7.890999794E0,2.778599977E0
7.999998437E0,3.779999912E-2,1.675599933E0,1.770999908E0
8.030001562E0,-1.922699928E0,-1.775299907E0,1.399399996E0
8.059970312E0,1.220799923E0,6.055899620E0,-3.232399940E0
8.079993750E0,2.704999924E0,6.257999897E0,-7.845399857E0
8.109996875E0,-5.901499748E0,-4.482100010E0,-3.792599916E0
8.139996875E0,-2.705099821E0,-4.816799641E0,3.082899809E0
8.170000000E0,2.587899923E0,-5.199999735E-2,-1.208999977E-1
8.200001562E0,4.611399651E0,4.723799706E0,-4.519400120E0
8.229973437E0,2.974099874E0,1.571099997E0,-5.181999803E-1
8.249995312E0,1.681800008E0,-2.168499947E0,5.888999701E-1
8.279996875E0,6.717999578E-1,-5.415400028E0,7.432999611E-1
8.309998437E0,7.505999804E-1,-3.248499870E0,-2.444999963E-1
8.340000000E0,4.766999781E-1,5.322999954E-1,-3.560999930E-1
8.369970312E0,-3.463000059E-1,1.241999984E0,7.773000002E-1
8.389993750E0,-2.621999979E-1,-1.039199948E0,2.376899958E0
8.419996875E0,2.333999872E-1,-3.113799810E0,1.281499982E0
8.449998437E0,4.679999948E-1,-4.894999862E-1,-1.663100004E0
8.480000000E0,2.365299940E0,3.383599997E0,4.266999960E-1
8.510001562E0,2.861999989E0,3.506399870E0,3.665999889E0
8.539973437E0,2.752699852E0,6.620800018E0,1.531599998E0
8.559995312E0,2.485899925E0,8.738499641E0,-4.790000021E-1
8.589996875E0,3.738999963E-1,3.459399939E0,-6.383999586E-1
8.619998437E0,-1.482100010E0,3.567999899E-1,-3.750999868E-1
8.650001562E0,-1.479399920E0,-4.951999784E-1,1.048000008E-1
8.679971875E0,-8.567999601E-1,3.960999966E0,7.111999989E-1
8.699993750E0,-1.805299997E0,4.476599693E0,6.814999580E-1
8.729995312E0,-9.099999815E-2,1.088299990E0,-1.181200027E0
8.759998437E0,2.054199934E0,-1.937699914E0,-2.270900011E0
8.790000000E0,1.578999996E0,-2.897099972E0,-3.539699793E0
8.820003125E0,7.218999863E-1,-2.337199926E0,-4.344699860E0
8.849971875E0,-4.353999794E-1,-3.195499897E0,-2.838599920E0
8.869993750E0,-9.825999737E-1,-3.721299887E0,-1.710899949E0
8.899996875E0,-1.323499918E0,-3.777099848E0,-1.998199940E0
8.930000000E0,-4.099999964E-1,-3.377399921E0,-1.717499971E0
8.960001562E0,-7.019000053E-1,-3.210999966E0,3.324999809E-1
8.989971875E0,-1.522399902E0,-2.844699860E0,2.851899862E0
9.009993750E0,-2.227200031E0,-5.780999660E-1,5.283099651E0
9.039996875E0,1.728599906E0,1.343459988E1,5.029200077E0
9.069996875E0,-9.593999982E-1,6.119199753E0,-2.655999959E-1
9.100000000E0,-2.744899988E0,-2.909600019E0,3.337699890E0
9.130003125E0,1.498299956E0,6.930799961E0,-3.573199987E0
9.159973437E0,4.914999962E0,-6.247999668E-1,-9.586999893E0
9.179995312E0,-3.121599913E0,-4.958099842E0,-6.256299973E0
9.209996875E0,2.549999952E-1,-3.428900003E0,3.856400013E0
9.239998437E0,3.438999951E-1,1.823799968E0,-1.421499968E0
9.270001562E0,1.055400014E0,4.416699886E0,-2.582499981E0
9.299971875E0,2.618499994E0,-6.310999990E-1,2.145999968E-1
9.319993750E0,1.203199983E0,-3.235599995E0,9.596999884E-1
9.349996875E0,4.581999779E-1,-5.048799992E0,3.454000056E-1
9.379998437E0,6.424999833E-1,-3.367199898E0,-1.381099939E0
9.410001562E0,3.344999850E-1,2.252999991E-1,-3.090099812E0
9.439970312E0,-4.334999919E-1,1.486999989E-1,-9.096999764E-1
9.459993750E0,-1.299600005E0,-4.413999915E-1,1.890599966E0
9.489995312E0,-1.088999987E0,1.659999974E-2,3.931399822E0
9.519996875E0,-3.883999884E-1,1.752799988E0,1.160300016E0
9.549998437E0,1.852399945E0,2.328999996E0,1.578299999E0
9.580000000E0,1.429499984E0,2.135200024E0,3.176599979E0
9.609971875E0,2.027899981E0,3.221099854E0,3.449399948E0
9.629995312E0,3.377399921E0,5.758999825E0,1.374699950E0
9.659995312E0,2.133599997E0,4.010900021E0,-1.580299973E0
9.689998437E0,-8.475999832E-1,2.024199963E0,-2.246099949E0
9.720000000E0,4.140999913E-1,1.256399989E0,1.206599951E0
9.749970312E0,-4.979999736E-2,5.347899914E0,-1.807999909E-1
9.769993750E0,-1.851399899E0,4.631700039E0,-3.509999812E-1
9.799995312E0,-7.376999855E-1,1.303599954E0,-3.753999770E-1
9.829996875E0,9.244999886E-1,-1.999899983E0,-1.632499933E0
9.860000000E0,8.686999679E-1,-2.615399837E0,-3.891899824E0
9.890001562E0,5.643999577E-1,-2.629299879E0,-4.381899834E0
9.919973437E0,-5.295999646E-1,-4.328999996E0,-2.829399824E0
9.939995312E0,-9.001999497E-1,-5.211699963E0,-2.082900047E0
9.969996875E0,-3.084000051E-1,-5.240499973E0,-1.966199994E0
9.999998437E0,8.410000056E-2,-4.786099911E0,-9.030999541E-1
1.003000000E1,-1.031000018E0,-3.407099962E0,1.281999946E0
1.005997188E1,-1.395699978E0,-1.051299930E0,3.359999895E0
1.007999375E1,-1.516999900E-1,3.297799826E0,5.871399879E0
1.010999531E1,7.193999887E-1,1.457609940E1,1.278699994E0
1.013999688E1,-2.773999929E0,7.838000059E-1,3.060699940E0
1.016999844E1,-2.833099842E0,-6.952600002E0,2.504600048E0
1.020000156E1,5.015999675E-1,2.262300014E0,-2.424299955E0
1.022997188E1,3.113299847E0,8.988200188E0,-1.057709980E1
1.024999531E1,-3.262699842E0,5.028899670E0,-6.101599693E0
1.027999688E1,8.848999739E-1,-4.511799812E0,2.559799910E0
1.030999844E1,4.596999884E-1,-4.683700085E0,-9.873999953E-1
1.034000156E1,2.211400032E0,1.536999941E0,-5.718100071E0
1.036997031E1,1.235899925E0,4.418999672E0,-1.673799992E0
1.038999375E1,7.842999697E-1,-2.920999825E-1,1.373399973E0
1.041999531E1,7.425000072E-1,-5.066400051E0,1.639000028E-1
1.044999844E1,1.020099998E0,-3.073299885E0,-1.404899955E0
1.048000000E1,8.784999847E-1,-6.870999932E-1,-2.924000025E-1
1.051000156E1,8.169999719E-1,-1.261699915E0,2.449999899E-1
1.053997188E1,9.220999479E-1,-2.749899864E0,7.109999657E-1
1.055999375E1,-6.146000028E-1,4.794999957E-1,1.271899939E0
1.058999688E1,-1.109799981E0,1.313699961E0,2.128700018E0
1.061999844E1,1.796199918E0,3.250099897E0,2.815099955E0
1.065000000E1,1.290300012E0,2.872400045E0,3.291100025E0
1.067997031E1,1.200999990E-1,2.639799833E0,2.412099838E0
1.069999375E1,2.053599834E0,6.047299862E0,1.765499949E0
1.072999531E1,1.444899917E0,3.550799847E0,-1.363600016E0
1.074999688E1,8.409000039E-1,2.949999809E0,-2.371099949E0
1.077998906E1,-4.863999784E-1,3.158299923E0,-1.571999937E-1
1.080999063E1,-1.590399981E0,3.010599852E0,-1.114699960E0
1.083999219E1,-1.692199945E0,3.738199949E0,8.393999934E-1
1.086999375E1,-7.781999707E-1,2.171799898E0,-9.615999460E-1
1.089999688E1,1.960799932E0,-1.629999995E0,-2.533699989E0
1.092999844E1,2.445600033E0,-3.105999947E0,-3.581099987E0
1.096000156E1,1.595499992E0,-2.872200012E0,-4.359499931E0
1.098997188E1,1.456999928E-1,-4.444299698E0,-3.157399893E0
1.100999375E1,-1.520799994E0,-5.217700005E0,-1.747099996E0
1.103999531E1,-1.785799980E0,-5.707299709E0,-2.778300047E0
1.106999688E1,9.043999910E-1,-5.130799770E0,-1.764400005E0
1.110000000E1,2.861999869E-1,-3.916599989E0,1.014699936E0
1.113000156E1,-1.230799913E0,1.689999998E-1,3.858199835E0
1.115997188E1,-3.949899912E0,1.125799942E1,3.764999866E0
1.117999531E1,-4.672199726E0,1.425629997E1,-1.286800027E0
1.120999688E1,-1.702099919E0,-1.100299954E0,3.607599974E0
1.124000000E1,-1.203999996E0,-2.719699860E0,5.818599701E0
1.127000156E1,7.417699814E0,7.350299835E0,-3.891499996E0
1.129997188E1,2.882999897E0,4.890100002E0,-1.363719940E1
1.131999375E1,-5.240599632E0,-2.216199875E0,-5.651000023E0
1.134999531E1,-1.166800022E0,-5.123899937E0,4.137799740E0
1.137999688E1,-1.482199907E0,-2.019399881E0,-3.355000019E-1
1.141000000E1,1.213500023E0,7.387499809E0,-5.523499966E0
1.144000156E1,2.678099871E0,3.220999956E0,-1.880299926E0
1.146997188E1,1.200999975E0,-3.892499924E0,6.056999564E-1
1.148999531E1,3.852999806E-1,-5.852499962E0,4.666999876E-1
1.151999688E1,8.679999411E-2,-3.529799938E0,-1.345999956E0
1.155000000E1,6.250000000E-1,-2.944999933E-1,-3.075000048E-1
1.158000000E1,1.383399963E0,-6.222999692E-1,-2.027999908E-1
1.160997188E1,6.750999689E-1,-3.216899872E0,-6.722999811E-1
1.162999375E1,-1.060599923E0,-1.314800024E0,1.039000005E-1
1.165999688E1,-1.321299911E0,1.361199975E0,1.767599940E0
1.168999688E1,9.904999733E-1,1.986999989E0,2.000699997E0
1.172000000E1,3.062799931E0,2.548599958E0,2.597199917E0
1.175000156E1,8.632999659E-1,3.380299807E0,2.371399879E0
1.177997344E1,2.515300035E0,6.569499969E0,2.190000057E0
1.179999531E1,3.156800032E0,5.963799953E0,4.583999813E-1
1.182999844E1,1.072600007E0,2.615200043E0,-2.952399969E0
1.185999844E1,-1.091699958E0,2.021399975E0,-1.855299950E0
1.189000156E1,2.309999913E-1,3.054899931E0,1.040699959E0
1.191997188E1,-5.870000124E-1,3.904199839E0,-7.691999674E-1
1.193999375E1,-1.236799955E0,2.985199928E0,-3.581999838E-1
1.196999688E1,8.062999845E-1,-6.939999759E-2,-1.581799984E0
1.199999688E1,1.791700006E0,-2.790400028E0,-3.212499857E0
1.203000000E1,5.327000022E-1,-2.753299952E0,-4.105299950E0
1.206000156E1,-4.319999814E-1,-3.874899864E0,-4.081500053E0
1.208997188E1,-1.945099950E0,-5.488599777E0,-2.028899908E0
1.210999531E1,-1.952099919E0,-5.402100086E0,-1.857199907E0
1.213999688E1,-3.747999966E-1,-4.273799896E0,-2.157299995E0
1.216999844E1,7.351999879E-1,-4.055900097E0,-7.003999949E-1
1.220000156E1,-6.729999781E-1,-2.333400011E0,2.020799875E0
1.222997188E1,-1.198799968E0,1.498699903E0,4.495500088E0
1.224999531E1,-2.710999846E-1,8.072799683E0,4.387700081E0
1.227999688E1,1.006600022E0,1.182459927E1,2.791000009E-1
1.230999844E1,-1.973199964E0,-2.631899834E0,5.360699654E0
1.234000000E1,-2.406800032E0,3.959599972E0,1.792799950E0
1.236997031E1,3.748099804E0,6.217199802E0,-8.189800262E0
1.238999375E1,2.438199997E0,-4.351999760E0,-9.524999619E0
1.241999531E1,-2.721699953E0,-7.190299988E0,2.578999996E-1
1.244999688E1,1.013100028E0,3.965999782E-1,4.033899784E0
1.248000000E1,1.076099992E0,7.540599823E0,-4.521800041E0
1.251000156E1,1.695400000E0,2.558300018E0,-1.294799924E0
1.253997188E1,2.007699966E0,-3.123699903E0,4.339999706E-2
1.255999375E1,1.143999934E0,-5.072799683E0,4.737999737E-1
1.258999688E1,-7.409999520E-2,-4.313299656E0,-7.518999577E-1
1.261999844E1,3.836999834E-1,-1.281199932E0,-1.815099955E0
1.265000156E1,4.816999733E-1,7.518000007E-1,-1.890899897E0
1.267997031E1,6.053000093E-1,-3.026799917E0,2.771999836E-1
1.269999375E1,2.349999994E-1,-2.909399986E0,1.745399952E0
1.272999531E1,-2.319999933E-1,6.904000044E-1,1.404599905E0
1.275999844E1,2.339999974E-1,2.807499886E0,1.748199940E0
1.278999844E1,2.437399864E0,2.968199968E0,3.074499846E0
1.282000156E1,7.616999745E-1,3.534699917E0,2.364300013E0
1.284997188E1,2.819599867E0,6.918900013E0,1.006500006E0
1.286999375E1,3.711199999E0,5.757499695E0,-2.254999876E-1
1.289999688E1,1.567099929E0,2.428499937E0,-3.731299877E0
1.292999844E1,-4.339999706E-2,9.740999937E-1,1.494999975E-1
1.296000156E1,-3.567999899E-1,4.624899864E0,1.397300005E0
1.298997188E1,-2.792299986E0,4.226999760E0,-2.821999788E-1
1.300999375E1,-1.781499982E0,2.716399908E0,-4.122999907E-1
1.303999688E1,1.661999941E0,-5.013999939E-1,-1.999799967E0
1.306999844E1,2.191999912E0,-2.616899967E0,-2.788899899E0
1.309999844E1,7.895999551E-1,-2.926199913E0,-4.172599792E0
1.313000156E1,-9.289999604E-1,-4.743199825E0,-3.689599991E0
1.315997188E1,-2.042799950E0,-5.717400074E0,-3.336199999E0
1.317999531E1,-1.376599908E0,-5.664499760E0,-3.463399887E0
1.320999688E1,4.844999909E-1,-4.491799831E0,-2.341500044E0
1.323999844E1,3.774999976E-1,-4.014800072E0,-7.029999793E-2
1.327000156E1,-4.259999990E-1,-2.179199934E0,2.270799875E0
1.329997031E1,-1.244099975E0,5.922899723E0,6.583899975E0
1.331999375E1,1.109699965E0,1.893959999E1,4.822299957E0
1.334999531E1,-5.704999566E-1,4.110599995E0,-9.889999777E-2
1.337999688E1,-2.736899853E0,-4.589799881E0,3.123999834E0
1.341000000E1,4.251999855E0,4.168600082E0,-4.369499683E0
1.344000312E1,6.251399994E0,4.306200027E0,-8.163499832E0
1.346997344E1,-6.133599758E0,-1.847899914E0,-4.436100006E0
1.348999375E1,-4.418900013E0,-4.046499729E0,9.803999662E-1
1.351999688E1,-3.070999980E-1,-8.029999733E-1,6.258999705E-1
1.355000000E1,2.891799927E0,1.875999928E0,-4.445099831E0
1.358000000E1,3.489699841E0,2.672499895E0,-1.804099917E0
1.360997188E1,5.336999893E-1,-2.212599993E0,5.368999839E-1
1.362999375E1,-2.440999895E-1,-4.670099735E0,1.056699991E0
1.365999688E1,4.475999773E-1,-3.844699860E0,-1.908999979E-1
1.368999688E1,1.444499969E0,-1.126399994E0,-8.652999997E-1
1.371999844E1,7.208999991E-1,1.189100027E0,-4.666000009E-1
1.375000156E1,3.746999800E-1,-1.438199997E0,3.063799858E0
1.377997188E1,1.039999962E0,-9.863999486E-1,2.033400059E0
1.379999531E1,-4.138000011E-1,3.157999814E-1,-1.683000028E-1
1.382999688E1,4.638999999E-1,2.024100065E0,1.434000015E0
1.385999844E1,1.963799953E0,2.384799957E0,2.643499851E0
1.389000000E1,-6.840999722E-1,3.657299995E0,2.796799898E0
1.391998438E1,3.175799847E0,6.142499924E0,1.126399994E0
1.393999375E1,3.999799967E0,9.640600204E0,-9.584999681E-1
1.396999531E1,-6.789999604E-1,1.646899939E0,-2.168999910E0
1.399999844E1,-4.129000008E-1,-7.189999521E-2,-1.179999948E0
1.403000000E1,1.246500015E0,7.100999951E-1,5.719999969E-2
1.406000156E1,9.441999793E-1,4.425399780E0,1.004500031E0
1.408997344E1,-6.401000023E-1,2.837800026E0,1.407999992E-1
1.410999531E1,5.054999590E-1,-1.081999987E-1,-1.060099959E0
1.413999688E1,1.343699932E0,-1.982399940E0,-2.461400032E0
1.416999844E1,5.695999861E-1,-1.371199965E0,-3.040499926E0
1.420000156E1,5.776000023E-1,-2.912600040E0,-3.229099989E0
1.422997188E1,-3.434999883E-1,-5.490799904E0,-2.067800045E0
1.424999375E1,-8.984999657E-1,-6.332200050E0,-2.131199837E0
1.427999531E1,-5.989999697E-2,-5.977499962E0,-2.585399866E0
1.430999688E1,5.303999782E-1,-5.273699760E0,-1.665899992E0
1.433999844E1,1.523000002E-1,-3.901899815E0,4.393000007E-1
1.437000312E1,-6.390999556E-1,-2.291499853E0,1.677699924E0
1.439997188E1,6.859999895E-1,5.697000027E0,4.359899998E0
1.441999531E1,2.075700045E0,1.660350037E1,9.528999925E-1
1.444002344E1,-7.703999877E-1,9.989699364E0,-4.102999866E-1
1.446998750E1,-3.454699993E0,3.602599859E0,3.974599838E0
1.449998906E1,-3.551999807E0,5.001999855E0,3.049999848E-2
1.452999219E1,3.393399954E0,2.986299992E0,-7.853999615E0
1.455999375E1,2.967999876E-1,-9.500399590E0,-6.139899731E0
1.458999688E1,2.441400051E0,-5.578999996E0,-6.825999618E-1
1.461999844E1,4.561699867E0,2.119799852E0,-3.901999950E0
1.465000000E1,-2.793499947E0,1.044419956E1,-2.201299906E0
1.468000156E1,5.958999991E-1,-2.046799898E0,2.394899845E0
1.470997188E1,1.757599950E0,-5.683499813E0,-9.989999980E-2
1.472999375E1,1.837299943E0,-4.924799919E0,-3.565999866E-1
1.475999688E1,1.854999959E-1,-1.756199956E0,-1.571799994E0
1.479000000E1,2.868999839E-1,-3.586999774E-1,-1.027300000E0
1.482000000E1,1.627399921E0,-2.202100039E0,1.245199919E0
1.484997188E1,2.038499832E0,-2.563799858E0,9.560999870E-1
1.486999375E1,-8.139999956E-2,-5.397999883E-1,-5.078999996E-1
1.489999688E1,-2.722399950E0,1.725099921E0,2.891599894E0
1.492999844E1,1.244799972E0,2.345299959E0,3.577299833E0
1.496000000E1,3.440999985E0,3.042399883E0,1.470399976E0
1.499000156E1,1.898999929E0,5.425399780E0,1.240100026E0
1.501997188E1,2.763900042E0,5.713799953E0,-7.155999541E-1
1.503999375E1,1.313399911E0,3.196599960E0,-2.524199963E0
1.506999688E1,-2.636999786E-1,3.673599958E0,-3.035599947E0
1.510000000E1,-1.880499959E0,5.477299690E0,1.499999911E-1
1.513000156E1,-1.734499931E0,4.216499805E0,1.063999981E-1
1.515997188E1,-1.155900002E0,1.895599961E0,-1.543299913E0
1.517999531E1,9.143999815E-1,-4.337999821E-1,-1.897699952E0
1.520999688E1,1.917799950E0,-3.334999800E0,-2.463500023E0
1.523999844E1,9.881999493E-1,-2.597199917E0,-4.387399673E0
1.527000000E1,5.629999936E-2,-3.488899946E0,-4.381000042E0
1.529997188E1,-9.702000022E-1,-5.013799667E0,-2.571899891E0
1.531999375E1,-1.219599962E0,-5.602399826E0,-1.768899918E0
1.534999531E1,-8.525999784E-1,-5.243700027E0,-2.150599957E0
1.537999688E1,-9.760999680E-1,-4.712699890E0,-1.447799921E0
1.541000000E1,-9.354999661E-1,-2.346899986E0,2.268399954E0
1.543001250E1,-5.338000059E-1,-1.099399924E0,3.908199787E0
1.545999219E1,2.599099874E0,1.002460003E1,6.079299927E0
1.548999531E1,-1.596199989E0,1.219299984E1,-9.769999981E-1
1.551999688E1,-3.103299856E0,-4.726099968E0,4.950599670E0
1.554999844E1,-2.307399988E0,4.116899967E0,4.742700100E0
1.558000000E1,5.432199955E0,8.037199974E0,-1.119759941E1
1.560997031E1,2.513000071E-1,-3.082399845E0,-7.734099865E0
1.562999375E1,1.727000028E-1,-5.198699951E0,-2.050400019E0
1.565999531E1,-5.726999640E-1,-2.530499935E0,8.686999679E-1
1.568999688E1,-1.897799969E0,1.777599931E0,-3.368899822E0
1.571999844E1,8.431999683E-1,4.845699787E0,-3.224799871E0
1.575000000E1,1.657199979E0,-1.499599934E0,-2.669999935E-2
1.577997188E1,2.027999908E-1,-6.423899651E0,1.225700021E0
1.579999531E1,3.502999842E-1,-5.246999741E0,-2.814999819E-1
1.582999531E1,1.383799911E0,-1.204299927E0,-1.207499981E0
1.585999844E1,1.019999944E-2,1.551699996E0,-1.878399968E0
1.589000156E1,2.809999883E-2,-1.384799957E0,3.766899824E0
1.591999219E1,8.104999661E-1,-1.142799973E0,2.481299877E0
1.593999219E1,-1.606199980E0,-3.384999931E-1,1.085899949E0
1.596999531E1,1.035200000E0,2.104899883E0,1.588199973E0
1.599999688E1,2.593499899E0,2.557600021E0,2.104599953E0
1.603000000E1,2.691999972E-1,3.269599915E0,2.048699856E0
1.606000156E1,3.102999926E0,6.693999767E0,1.538699985E0
1.608997188E1,3.379499912E0,3.087399960E0,-1.199899912E0
1.610999375E1,2.428299904E0,3.744299889E0,-3.013599873E0
1.613999531E1,-5.345999599E-1,4.266099930E0,-1.475999951E0
1.616999844E1,-2.110699892E0,3.899099827E0,-7.552999854E-1
1.620000156E1,-2.248899937E0,3.116799831E0,-1.982000023E-1
1.622997188E1,-8.639999628E-1,1.623999923E-1,-2.045099974E0
1.624999375E1,7.340999842E-1,-2.195899963E0,-2.023000002E0
1.627999688E1,2.436300039E0,-3.059499979E0,-2.513700008E0
1.630999688E1,1.203099966E0,-2.317499876E0,-4.421499729E0
1.634000000E1,-1.989999972E-2,-3.638000011E0,-3.793200016E0
1.637000156E1,-1.902399898E0,-5.011300087E0,-1.687999964E0
1.639997188E1,-2.019700050E0,-5.155499935E0,-1.739499927E0
1.641999531E1,-5.655999780E-1,-4.907099724E0,-2.005399942E0
1.644999688E1,-5.789999962E-1,-4.725100040E0,-8.090999722E-1
1.647999844E1,-1.139099956E0,-3.761399984E0,2.008399963E0
1.651000000E1,3.098999858E-1,4.539199829E0,6.139499664E0
1.653997188E1,9.890999794E-1,1.874279976E1,2.024499893E0
1.655999375E1,-4.006099701E0,6.175099850E0,-7.135999799E-1
1.658999531E1,-2.850100040E0,2.665999830E-1,5.709199905E0
1.661999688E1,1.796499968E0,1.021889973E1,-4.403599739E0
1.664999844E1,5.039700031E0,-7.307099819E0,-1.013799953E1
1.668000156E1,-7.653999925E-1,-9.031299591E0,-3.823799849E0
1.670997188E1,1.034299970E0,1.163499951E0,7.885999680E-1
1.672999531E1,-1.404500008E0,7.353799820E0,-3.095799923E0
1.675999688E1,-1.845199943E0,4.070099831E0,-1.836799979E0
1.678999844E1,3.515799999E0,-2.300799847E0,-6.474999785E-1
1.682000156E1,1.646199942E0,-4.863100052E0,-4.809999838E-2
1.684997188E1,-4.351999760E-1,-4.700799942E0,3.189999983E-2
1.686999375E1,-9.424999952E-1,-2.350800037E0,-1.282999963E-1
1.689999531E1,-1.348000020E-1,8.790999651E-1,-7.622999549E-1
1.692999688E1,1.333999991E0,-3.481999934E-1,6.615999937E-1
1.696000000E1,1.518800020E0,-1.794199944E0,3.835799932E0
1.699000156E1,4.431999922E-1,5.363999605E-1,1.121599913E0
1.701997188E1,-1.097199917E0,1.707999945E0,1.188499928E0
1.703999531E1,1.007300019E0,1.683200002E0,1.893899918E0
1.706999688E1,2.190299988E0,2.923399925E0,2.830499887E0
1.710000000E1,-7.678999901E-1,2.461799860E0,2.776099920E0
1.713000156E1,2.555099964E0,6.298699856E0,9.650999904E-1
1.715997188E1,2.396600008E0,2.060499907E0,-1.379699945E0
1.717999375E1,2.486999989E0,1.609399915E0,-1.388599992E0
1.720999688E1,1.679899931E0,4.876199722E0,-1.170300007E0
1.723999844E1,-5.800999999E-1,5.182499886E0,-5.532999635E-1
1.727000000E1,-2.380199909E0,2.630599976E0,-2.055999935E-1
1.730000156E1,-3.377999961E-1,-3.285000026E-1,-9.898999929E-1
1.732997344E1,8.856999874E-1,-3.216799974E0,-2.675999880E0
1.734999531E1,6.873999834E-1,-3.049899817E0,-4.307300091E0
1.737999688E1,4.329999983E-1,-2.623299837E0,-5.217199802E0
1.741000000E1,-5.087999701E-1,-5.086199760E0,-2.623999834E0
1.743000000E1,-8.028999567E-1,-5.369800091E0,-1.900699973E0
1.745999062E1,-1.626399994E0,-5.451900005E0,-1.291800022E0
1.748999375E1,-7.498999834E-1,-4.465499878E0,-4.897999763E-1
1.751999531E1,-5.269999802E-2,-2.968600035E0,1.695400000E0
1.754999844E1,-5.759999901E-2,-3.168999851E-1,4.808599949E0
1.758000000E1,1.907799959E0,1.415229988E1,3.536299944E0
1.761000156E1,-3.885000050E-1,7.862499714E0,-9.430999756E-1
1.763997188E1,-2.678900003E0,-3.370100021E0,4.509999752E0
1.765999531E1,-1.984899998E0,2.098999977E0,5.817199707E0
1.768999688E1,5.140500069E0,9.090799332E0,-4.934299946E0
1.771999844E1,1.590799928E0,-3.191999912E0,-1.065110016E1
1.775000156E1,-5.456899643E0,-8.403299332E0,-1.723599911E0
1.777997188E1,1.527300000E0,-9.940999746E-1,2.483999968E0
1.779999375E1,1.733299971E0,2.952699900E0,-3.668599844E0
1.782999531E1,7.290999889E-1,5.208099842E0,-3.650399923E0
1.785999844E1,2.089499950E0,-7.671999931E-1,6.856999993E-1
1.789000000E1,1.813899994E0,-5.350299835E0,2.469999939E-1
1.792000156E1,1.827099919E0,-4.756899834E0,-5.352999568E-1
1.794997344E1,1.048599958E0,-1.410499930E0,-1.278999925E0
1.796999531E1,1.024999991E-1,1.926299930E0,-1.527599931E0
1.799999688E1,2.193999887E-1,6.373999715E-1,2.509099960E0
1.803000000E1,5.999999642E-1,-1.092100024E0,4.647099972E0
1.806000156E1,-1.477699995E0,-2.164399862E0,-6.196999550E-1
1.808997031E1,4.034999907E-1,1.598299980E0,2.190500021E0
1.810999375E1,3.571099997E0,2.687000036E0,2.360299826E0
1.813999688E1,2.594300032E0,3.033699989E0,2.789899826E0
1.816999844E1,3.135799885E0,4.884200096E0,2.206899881E0
1.820000000E1,4.049399853E0,6.872099876E0,-4.206999838E-1
1.822997188E1,7.703999877E-1,3.847999811E0,-3.481400013E0
1.824999375E1,-5.357999802E-1,1.480000019E0,-1.880399942E0
1.827999531E1,-1.052399993E0,2.454299927E0,-1.423799992E0
1.830999688E1,-2.428200006E0,5.817299843E0,8.543999791E-1
1.834000000E1,-3.145999908E0,4.386399746E0,-9.185000062E-1
1.837000156E1,3.820999861E-1,-9.462999701E-1,-2.156599998E0
1.839997188E1,1.681100011E0,-3.476199865E0,-2.434299946E0
1.841999531E1,1.573099971E0,-3.393899918E0,-3.965899944E0
1.844999531E1,5.982999802E-1,-4.027299881E0,-4.151899815E0
1.847999844E1,-9.149999619E-1,-5.745899677E0,-3.044499874E0
1.851000000E1,-1.610399961E0,-5.979199886E0,-2.174099922E0
1.853997031E1,-7.268999815E-1,-5.029900074E0,-1.322700024E0
1.855999375E1,-5.439999700E-1,-4.555399895E0,-6.712999940E-1
1.858999531E1,-5.656999946E-1,-3.155299902E0,8.096999526E-1
1.861999844E1,-5.633000135E-1,1.830199957E0,5.188499928E0
1.865000000E1,1.197700024E0,1.728590012E1,5.527199745E0
1.868000156E1,-3.336999893E0,3.566099882E0,-2.829999924E-1
1.870997344E1,-2.300799847E0,-2.473599911E0,5.257400036E0
1.872999375E1,1.137099981E0,6.480999947E0,1.181200027E0
1.875999531E1,7.447599888E0,3.140899897E0,-7.743299961E0
1.878999844E1,-3.064499855E0,-7.287299633E0,-7.980299950E0
1.882000000E1,-7.942999601E-1,-4.305500031E0,2.559499979E0
1.884997031E1,4.420999885E-1,2.142299891E0,-1.129999995E0
1.886999219E1,2.574000061E-1,6.723999977E0,-5.085400105E0
1.889999531E1,2.269700050E0,1.401499987E0,-1.054199934E0
1.892999688E1,1.343699932E0,-3.274199963E0,5.060999990E-1
1.896000000E1,2.892999947E-1,-4.900199890E0,1.159199953E0
1.899000000E1,2.999999821E-1,-2.721999884E0,-2.251999974E-1
1.901997188E1,7.524999976E-1,-3.299999982E-2,-9.267999530E-1
1.903999531E1,5.666999817E-1,2.193999887E-1,-5.144000053E-1
1.906999531E1,1.227299929E0,-2.130199909E0,1.903399944E0
1.909999844E1,1.018399954E0,-6.913999915E-1,2.074699879E0
1.913000000E1,-9.009000063E-1,7.831000090E-1,1.927599907E0
1.915997188E1,1.083599925E0,2.883199930E0,2.836599827E0
1.917999375E1,3.550899982E0,3.875399828E0,2.475699902E0
1.920999531E1,7.935999632E-1,3.507200003E0,2.526199818E0
1.923999844E1,3.425099850E0,6.695999622E0,2.446499825E0
1.927000000E1,2.419600010E0,2.694099903E0,-1.868199944E0
1.930000156E1,1.490000010E0,2.572499990E0,-2.308199883E0
1.932997188E1,-2.117799997E0,5.553799629E0,-1.273699999E0
1.934999531E1,-1.723999977E0,3.916899920E0,6.269999593E-2
1.937999688E1,-1.625299931E0,2.566599846E0,-6.809999794E-2
1.940999844E1,1.858899951E0,-2.380599976E0,-2.782099962E0
1.944000000E1,1.822299957E0,-3.910499811E0,-3.494099855E0
1.946997031E1,1.061699986E0,-3.203299999E0,-4.390699863E0
1.948999375E1,6.337999701E-1,-3.482899904E0,-4.265299797E0
1.951999531E1,-1.150799990E0,-4.850800037E0,-2.566699982E0
1.954999688E1,-2.190799952E0,-5.049900055E0,-1.049999952E0
1.958000000E1,-1.280499935E0,-3.902499914E0,-1.372200012E0
1.961000156E1,-9.223999977E-1,-2.989099979E0,-1.244999990E-1
1.963997188E1,-1.651600003E0,-2.754299879E0,2.417099953E0
1.965999531E1,-2.278599977E0,-5.895000100E-1,5.132299900E0
1.968999688E1,2.564399958E0,1.536730003E1,1.772599936E0
1.972000000E1,-4.639999941E-2,6.858599663E0,-4.939999878E-1
1.975000156E1,-2.095399857E0,-3.974200010E0,8.835800171E0
1.977997031E1,2.819000006E0,5.853799820E0,-1.221300006E0
1.979999375E1,6.225800037E0,6.674900055E0,-1.112599945E1
1.982999531E1,-4.288300037E0,-4.750099659E0,-8.205100060E0
1.985999844E1,-3.902499914E0,-6.184000015E0,3.209699869E0
1.989000000E1,-3.219999969E-1,6.579999924E-1,-5.746999979E-1
1.992000312E1,2.088000059E0,6.396899700E0,-6.664499760E0
1.994997344E1,3.908399820E0,1.439199924E0,-1.362499952E0
1.996999531E1,1.269699931E0,-4.269599915E0,8.274999857E-1
1.999999688E1,1.021399975E0,-6.291399956E0,6.653000116E-1
2.002999844E1,2.005599976E0,-2.476899862E0,-2.439999878E-1
2.006000156E1,1.422599912E0,1.121500015E0,-9.074999690E-1
2.008997188E1,2.750000060E-1,-7.197999954E-1,4.579999745E-1
2.010999375E1,-1.020799994E0,-2.011499882E0,2.583699942E0
2.013999531E1,-1.448599935E0,-1.038499951E0,3.106899977E0
2.016999844E1,2.584999800E-1,1.643700004E0,2.319399834E0
2.020000000E1,4.364099979E0,2.123399973E0,8.170999885E-1
2.023000156E1,1.977199912E0,4.048399925E0,1.306199908E0
2.025997344E1,-7.554999590E-1,5.688499928E0,2.816299915E0
2.027999531E1,2.119400024E0,5.272099972E0,1.323099971E0
2.030999688E1,2.296700001E0,2.979799986E0,-1.752200007E0
2.034000000E1,1.281599998E0,1.413599968E0,-4.195999801E-1
2.037000000E1,1.125999987E-1,4.559899807E0,-5.809000134E-1
2.039997188E1,-1.921299934E0,4.910500050E0,7.648999691E-1
2.041999375E1,-1.577399969E0,2.563599825E0,-5.672000051E-1
2.044000000E1,4.809999838E-2,1.078499913E0,-1.906299949E0
2.046998594E1,2.426399946E0,-2.442600012E0,-2.552399874E0
2.049998906E1,1.289799929E0,-2.931999922E0,-3.572899818E0
2.052999062E1,3.479999900E-1,-2.811599970E0,-4.988999844E0
2.055999219E1,-5.616999865E-1,-4.616300106E0,-3.372900009E0
2.058999375E1,-1.318599939E0,-5.633800030E0,-1.434000015E0
2.061999688E1,-9.540999532E-1,-5.140699863E0,-1.321499944E0
2.064999844E1,-9.406999946E-1,-4.200699806E0,-3.989999890E-1
2.068000156E1,-6.784999967E-1,-3.392099857E0,1.356799960E0
2.070997188E1,6.656999588E-1,1.598799944E0,6.031599998E0
2.072999531E1,4.117599964E0,1.751309967E1,5.477799892E0
2.075999688E1,-4.030900002E0,8.529500008E0,-1.261899948E0
2.078999844E1,-4.291299820E0,-3.452899933E0,6.187799931E0
2.082000000E1,-1.325999945E-1,7.907399654E0,-2.303799868E0
2.085000156E1,8.442399979E0,-2.209699869E0,-9.776899338E0
2.087997188E1,-2.208899975E0,-7.181099892E0,-6.176300049E0
2.089999531E1,-1.087800026E0,-1.512300014E0,1.891699910E0
2.092999688E1,-3.006899834E0,4.244199753E0,-1.105799913E0
2.095999844E1,-1.719699979E0,3.157299995E0,-3.294499874E0
2.099000000E1,2.874799967E0,-1.512399912E0,-9.454999566E-1
2.101997188E1,1.980099916E0,-4.357999802E0,-4.490000010E-2
2.103999375E1,1.600999951E0,-5.330699921E0,7.806999683E-1
2.106999688E1,1.642199993E0,-3.351899862E0,2.852999866E-1
2.109999844E1,1.009400010E0,1.133199930E0,-1.778599977E0
2.113000156E1,2.836999893E-1,1.064999998E-1,1.025699973E0
2.115997188E1,6.833999753E-1,-1.701399922E0,4.345200062E0
2.117999219E1,-2.823999822E-1,-6.603999734E-1,3.207799911E0
2.120999531E1,-2.596799850E0,8.001999855E-1,2.107699871E0
2.123999688E1,1.851599932E0,1.838599920E0,1.661199927E0
2.127000000E1,3.594499826E0,3.449800014E0,3.051100016E0
2.130000156E1,1.336699963E0,3.645099878E0,3.829999924E0
2.132997188E1,2.970199823E0,6.574899673E0,6.114000082E-1
2.134999375E1,2.650899887E0,3.586799860E0,-2.521699905E0
2.137999688E1,3.607999980E-1,1.652599931E0,-3.248899937E0
2.140999844E1,-2.288399935E0,4.790299892E0,1.517300010E0
2.144000156E1,-2.093299866E0,4.719500065E0,1.498999894E-1
2.146997188E1,-2.406499863E0,2.587499857E0,-5.674999952E-1
2.148999375E1,-4.256999791E-1,4.730999768E-1,-1.325199962E0
2.151999531E1,1.742499948E0,-2.053400040E0,-2.166800022E0
2.154999688E1,1.398000002E0,-2.129400015E0,-3.127099991E0
2.158000000E1,3.546999991E-1,-2.737399817E0,-4.208199978E0
2.161000156E1,-6.880999804E-1,-5.304899693E0,-3.342399836E0
2.163997188E1,-9.394999743E-1,-6.230700016E0,-2.329599857E0
2.165999375E1,-7.313999534E-1,-5.945099831E0,-2.171499968E0
2.168999688E1,-1.149500012E0,-5.765500069E0,-2.275500059E0
2.171999844E1,-1.572099924E0,-4.671599865E0,2.302999943E-1
2.175000000E1,-3.807999790E-1,3.810899973E0,8.048799515E0
2.177997188E1,1.242200017E0,1.980340004E1,4.159599781E0
2.179999375E1,-2.317800045E0,7.597199917E0,-2.935000062E-1
2.182999531E1,-3.840399981E0,-3.580399990E0,3.648699999E0
2.185999844E1,1.706999987E-1,8.486199379E0,1.464200020E0
2.189000000E1,7.054800034E0,2.088399887E0,-9.364099503E0
2.192000312E1,-2.256399870E0,-8.130499840E0,-6.747099876E0
2.194997188E1,1.519199967E0,-4.817599773E0,1.465600014E0
2.196999375E1,1.414999962E0,2.338999957E-1,-5.880999565E-1
2.199999688E1,-1.194399953E0,7.905900002E0,-5.817800045E0
2.202999844E1,1.027799964E0,2.311699867E0,-1.303000003E-1
2.206000000E1,2.078399897E0,-3.325399876E0,-1.516000032E-1
2.208997188E1,9.210000038E-1,-6.212499619E0,6.624000072E-1
2.210999375E1,1.784999967E-1,-5.189099789E0,-1.054999977E-1
2.213999531E1,7.379999757E-1,-1.154500008E0,-7.233999968E-1
2.216999844E1,1.033299923E0,2.037400007E0,-1.256899953E0
2.220000000E1,1.183200002E0,-1.276099920E0,3.952899933E0
2.223000156E1,1.929299951E0,-1.464800000E0,2.991299868E0
2.225997188E1,-1.462199926E0,1.448199987E0,1.881500006E0
2.227999375E1,5.788999796E-1,3.539699793E0,3.458499908E0
2.230999688E1,3.698599815E0,2.538800001E0,2.693899870E0
2.233999844E1,1.749399900E0,4.580199718E0,2.929800034E0
2.237000000E1,2.750000000E0,5.751199722E0,6.776999831E-1
2.239997188E1,1.885299921E0,3.648699999E0,-2.534099817E0
2.241999375E1,-1.033999994E-1,2.232199907E0,-3.621500015E0
2.244999531E1,-6.818000078E-1,2.182800055E0,-1.127900004E0
2.247999844E1,-8.982999921E-1,4.045399666E0,7.102000117E-1
2.251000000E1,-2.855999947E0,3.044099808E0,-4.176999927E-1
2.254000156E1,-3.339000046E-1,-1.699000001E-1,-1.713999987E0
2.256997344E1,1.962499976E0,-3.533200026E0,-1.912499905E0
2.258999375E1,1.688599944E0,-3.787299871E0,-2.759599924E0
2.261999688E1,7.476999760E-1,-2.827800035E0,-4.104700089E0
2.265000000E1,5.349999666E-1,-4.277800083E0,-4.133500099E0
2.268000000E1,-5.935999751E-1,-5.858999729E0,-2.497299910E0
2.270997031E1,-7.199999690E-1,-5.843299866E0,-1.045099974E0
2.272999375E1,-1.081399918E0,-5.131099701E0,4.244999886E-1
2.275999688E1,-1.773899913E0,-2.827899933E0,2.022699833E0
2.278999844E1,-2.842999995E-1,2.371299982E0,4.455800056E0
2.282000000E1,1.915399909E0,1.689920044E1,2.366600037E0
2.285000312E1,-3.554600000E0,4.812599659E0,5.870999694E-1
2.287997188E1,-1.880899906E0,-8.083099365E0,5.294300079E0
2.289999375E1,-7.013999820E-1,6.019999981E-1,4.058000088E0
2.292999688E1,4.328999996E0,1.149219990E1,-1.061819935E1
2.296000000E1,-2.020200014E0,-2.214900017E0,-7.452399731E0
2.299000156E1,2.603999972E-1,-5.709499836E0,1.944299936E0
2.301997188E1,1.933299899E0,-1.380999982E-1,5.133000016E-1
2.303999375E1,-3.941999972E-1,3.220799923E0,-5.528100014E0
2.306999531E1,-1.199699998E0,2.772300005E0,-2.810999870E0
2.309999844E1,1.199000001E0,-1.848699927E0,-6.582999825E-1
2.313000000E1,8.919000030E-1,-6.301499844E0,-7.287999988E-1
2.316000156E1,8.779999614E-1,-3.740000010E0,-7.231999636E-1
2.318997344E1,1.777799964E0,3.172999918E-1,2.803999782E-1
2.320999531E1,3.659999967E-1,1.885800004E0,4.043000042E-1
2.323999688E1,-1.623999923E-1,-1.389500022E0,3.354099989E0
2.327000000E1,1.239199996E0,-8.017999530E-1,1.910899997E0
2.330000156E1,-2.788499832E0,2.581500053E0,1.167999953E-1
2.332997188E1,2.261800051E0,3.307999849E0,3.275399923E0
2.334999375E1,3.121899843E0,5.032099724E0,2.828099966E0
2.337999688E1,1.714100003E0,5.884799957E0,3.289000034E0
2.340999844E1,2.786799908E0,5.456599712E0,-6.920999885E-1
2.344000000E1,1.461199999E0,2.618700027E0,-3.777299881E0
2.347000312E1,5.636000037E-1,-5.058000088E-1,-1.580399990E0
2.349997344E1,-7.869999856E-2,3.472100019E0,1.050499916E0
2.351999531E1,-2.099799871E0,4.452199936E0,6.753999591E-1
2.354999688E1,-1.687600017E0,2.168900013E0,-4.253999889E-1
2.357999844E1,1.218299985E0,-1.610199928E0,-1.467599988E0
2.361000156E1,2.092299938E0,-2.958499908E0,-2.455600023E0
2.363997188E1,1.015499949E0,-2.616999865E0,-4.304599762E0
2.365999375E1,6.011999846E-1,-3.169099808E0,-4.818399906E0
2.368999688E1,-1.188899994E0,-4.981499672E0,-2.417399883E0
2.371999844E1,-1.415499926E0,-6.053899765E0,-1.531399965E0
2.375000000E1,-4.879999906E-2,-4.803899765E0,-1.584100008E0
2.378000156E1,-4.760999978E-1,-4.371200085E0,-1.231999993E-1
2.380997344E1,-9.548999667E-1,-1.652400017E0,2.570999861E0
2.382999531E1,-1.162400007E0,3.858299971E0,6.796000004E0
2.385999844E1,3.111000061E-1,1.946889877E1,2.246199846E0
2.388999844E1,-1.932699919E0,-1.750999987E-1,2.230000019E0
2.392000312E1,-1.523100019E0,-6.487499714E0,4.280099869E0
2.394997188E1,4.395699978E0,4.996399879E0,-2.711400032E0
2.396999531E1,7.079099655E0,1.026039982E1,-1.257069969E1
2.399999688E1,-6.487299919E0,-5.691999793E-1,-4.741199970E0
2.402999844E1,-2.450099945E0,-6.750199795E0,3.222999811E0
2.406000000E1,3.544999957E-1,-2.489500046E0,-2.564699888E0
2.408997031E1,3.724699974E0,4.862400055E0,-8.110699654E0
2.410999375E1,4.044199944E0,5.003999710E0,-4.841399670E0
2.413999531E1,1.001299977E0,-2.281399965E0,1.352100015E0
2.416999844E1,-2.421000004E-1,-5.379399776E0,8.455999494E-1
2.419999844E1,1.000499964E0,-3.758599997E0,-1.621999979E0
2.423000156E1,9.138999581E-1,1.389999967E-2,-9.591999650E-1
2.425997188E1,-1.537799954E0,2.370899916E0,3.962999880E-1
2.427999375E1,-8.649999648E-2,2.395000011E-1,4.754199982E0
2.430999531E1,2.983000040E0,-2.850999832E0,2.035199881E0
2.433999844E1,-1.803299904E0,1.421199918E0,-1.003399968E0
2.437000000E1,1.650599957E0,2.898799896E0,2.294999838E0
2.439997188E1,2.633399963E0,4.120399952E0,3.912699938E0
2.441999375E1,3.946999907E-1,2.667999983E0,3.000599861E0
2.444999531E1,2.866299868E0,5.084599972E0,6.750999689E-1
2.447999844E1,2.985299826E0,2.463700056E0,-3.453199863E0
2.451000000E1,9.432999492E-1,2.316900015E0,-1.903800011E0
2.454000156E1,2.532999814E-1,4.779200077E0,-2.640999854E-1
2.456997344E1,-1.431599975E0,3.316200018E0,2.681999803E-1
2.458999531E1,-1.592199922E0,3.128899813E0,9.666999578E-1
2.461999688E1,5.319999903E-2,1.222399950E0,-1.861099958E0
2.464999844E1,1.351199985E0,-1.847000003E0,-2.256700039E0
2.468000000E1,1.229099989E0,-2.810699940E0,-4.408599854E0
2.470997031E1,6.879000068E-1,-3.789499998E0,-5.080699921E0
2.472999375E1,7.490000129E-2,-5.266399860E0,-4.078199863E0
2.475999531E1,-1.670699954E0,-6.102799892E0,-2.112999916E0
2.478999844E1,-1.566399932E0,-5.195099831E0,-2.012899876E0
2.481999844E1,-1.634999961E-1,-3.965099812E0,-7.458999753E-1
2.485000156E1,-1.606999934E-1,-2.416100025E0,1.394899964E0
2.487997188E1,-8.394999504E-1,7.030000091E-1,4.562500000E0
2.489999531E1,-1.663100004E0,9.095899582E0,6.136199951E0
2.492999688E1,-2.593699932E0,1.185669994E1,-3.300999999E-1
2.495999844E1,-1.865099907E0,-2.332700014E0,3.231799841E0
2.499000156E1,-1.448499918E0,-5.266799927E0,4.544600010E0
2.501997188E1,6.741799831E0,6.204799652E0,-3.348699808E0
2.503999375E1,6.032799721E0,1.139359951E1,-1.400389957E1
2.506999531E1,-6.618299961E0,8.094999790E-1,-3.756699800E0
2.509999844E1,-5.537999868E-1,-5.615599632E0,2.472899914E0
2.513000000E1,1.950999945E-1,-3.147799969E0,-1.487499952E0
2.516000156E1,2.777599812E0,3.680799961E0,-5.633499622E0
2.518997344E1,3.239799976E0,5.033299923E0,-2.063099861E0
2.520999375E1,9.492999911E-1,-6.712999940E-1,6.538999677E-1
2.523999688E1,-1.446999907E-1,-6.398699760E0,1.056800008E0
2.526999844E1,1.056699991E0,-3.332499981E0,-1.419299960E0
2.530000000E1,1.384699941E0,-7.386999726E-1,-1.199100018E0
2.532997188E1,9.161999822E-1,-1.151199937E0,-5.875999928E-1
2.534999375E1,9.838999510E-1,-1.851099968E0,1.075399995E0
2.537999531E1,-9.378999472E-1,6.211999655E-1,1.184899926E0
2.540999688E1,-1.595600009E0,3.718299866E0,1.483199954E0
2.544000000E1,1.299799919E0,2.387099981E0,2.875799894E0
2.547000156E1,1.889999986E0,3.910899878E0,2.205299854E0
2.549997188E1,1.778999925E0,7.243700027E0,2.671399832E0
2.551999531E1,2.308300018E0,5.006799698E0,1.027500033E0
2.554999688E1,2.620599985E0,2.406399965E0,-1.266999960E0
2.557999844E1,2.151499987E0,1.088599920E0,-1.408900023E0
2.561000000E1,1.200500011E0,2.818899870E0,-4.255999923E-1
2.563997188E1,-5.651000142E-1,5.131700039E0,1.537999958E-1
2.565999375E1,-2.507599831E0,3.751399994E0,-4.314000010E-1
2.568999531E1,-6.179999709E-1,3.908999860E-1,-1.449199915E0
2.571999844E1,1.164699912E0,-2.516899824E0,-2.540499926E0
2.575000000E1,1.547599912E0,-2.865999937E0,-3.570499897E0
2.578000312E1,1.327499986E0,-3.304399967E0,-4.257100105E0
2.580997188E1,-1.298999935E-1,-5.482699871E0,-3.286799908E0
2.582999531E1,-1.051599979E0,-5.925199986E0,-2.702399969E0
2.585999688E1,-9.338999987E-1,-4.971699715E0,-2.024899960E0
2.588999844E1,-4.888999760E-1,-3.986699820E0,-7.566999793E-1
2.592000156E1,-1.238600016E0,-3.080999851E0,1.317299962E0
2.594997188E1,-1.819899917E0,-6.376999617E-1,4.598899841E0
2.596999375E1,1.689999998E-1,5.211299896E0,7.817699909E0
2.599999531E1,1.309999943E0,1.584779930E1,-1.026499987E0
2.602999844E1,-2.920300007E0,5.430999994E-1,2.421599865E0
2.606000000E1,-2.121500015E0,-2.443999946E-1,5.015399933E0
2.609000156E1,4.045799732E0,9.540800095E0,-7.384500027E0
2.611997188E1,6.922000051E-1,-5.421299934E0,-9.743199348E0
2.613999375E1,-3.757699966E0,-8.804200172E0,-4.698100090E0
2.616999688E1,-7.870000005E-1,-2.900899887E0,3.947899818E0
2.619999844E1,3.250399828E0,4.787600040E0,-3.991999865E0
2.623000156E1,2.071500063E0,5.571099758E0,-5.293600082E0
2.625997188E1,2.123299837E0,-2.261800051E0,2.510000020E-2
2.627999375E1,1.206200004E0,-4.235499859E0,7.551999688E-1
2.630999688E1,7.087000012E-1,-4.419799805E0,1.088400006E0
2.633999844E1,5.453000069E-1,-2.384099960E0,-4.688999951E-1
2.636999844E1,1.292599916E0,4.680999815E-1,-1.064700007E0
2.640000156E1,1.518000007E0,-5.753999949E-1,1.061999947E-1
2.642997188E1,-3.639999777E-2,-1.937899947E0,1.704800010E0
2.644999531E1,-2.013599873E0,-1.226999983E-1,6.926000118E-1
2.647999688E1,-1.200699925E0,2.197799921E0,1.725999951E0
2.651000000E1,1.893299937E0,2.710999966E0,2.298199892E0
2.654000000E1,1.163399935E0,3.854499817E0,2.421299934E0
2.656997188E1,9.793999791E-1,3.474900007E0,2.608999968E0
2.658999375E1,3.345799923E0,5.161399841E0,1.331599951E0
2.661999688E1,2.865299940E0,1.052999973E0,-2.422600031E0
2.664999844E1,3.474599838E0,3.232100010E0,-1.074199915E0
2.668000000E1,-9.046999812E-1,6.509899616E0,-4.606999755E-1
2.671000312E1,-1.949000001E0,2.867499828E0,-9.439999610E-2
2.673997188E1,-8.412999511E-1,2.994999886E-1,-1.625999957E-1
2.675999375E1,2.962000072E-1,-1.035099983E0,-9.914999604E-1
2.678999844E1,1.235599995E0,-2.095900059E0,-2.647699833E0
2.682000000E1,1.463499904E0,-1.590799928E0,-4.177899837E0
2.685000000E1,6.401999593E-1,-2.471899986E0,-4.864399910E0
2.687997188E1,-5.173999667E-1,-4.571300030E0,-3.056699991E0
2.689999375E1,-1.326200008E0,-5.369999886E0,-1.794499993E0
2.692999688E1,-3.820999861E-1,-5.360699654E0,-1.773299932E0
2.695999688E1,-4.537999928E-1,-5.305500031E0,-4.260999858E-1
2.699000000E1,-9.687999487E-1,-4.019299984E0,2.376099825E0
2.701997031E1,2.111299992E0,1.177999973E0,5.230599880E0
2.703999219E1,1.550300002E0,1.690449905E1,2.622499943E0
2.706999531E1,-3.509500027E0,9.303400040E0,-4.946999848E-1
2.709999844E1,-3.739399910E0,-3.730499983E0,6.261499882E0
2.712999844E1,2.108999938E-1,6.659399986E0,2.051599979E0
2.716000000E1,5.949699879E0,3.400399923E0,-8.635399818E0
2.718997344E1,-1.968799949E0,-8.414899826E0,-8.757699966E0
2.720999531E1,-2.010699987E0,-8.372799873E0,-6.643999815E-1
2.723999531E1,1.731899977E0,5.722000003E-1,1.107699990E0
2.726999844E1,4.907999933E-1,8.163800240E0,-6.901799679E0
2.730000000E1,1.421100020E0,1.494199991E0,-4.490000010E-1
2.732997031E1,1.815899968E0,-3.134999990E0,3.419999778E-2
2.734999375E1,8.634999990E-1,-4.697299957E0,-4.499999806E-3
2.737999531E1,6.250000000E-1,-3.999300003E0,-4.690999985E-1
2.740999688E1,1.659999974E-2,2.630000003E-2,-1.500299931E0
2.742999688E1,-2.852999866E-1,1.635999918E0,-1.550799966E0
2.745999063E1,6.960000098E-2,-6.128000021E-1,8.532999754E-1
2.748999219E1,1.716300011E0,-1.572899938E0,4.168499947E0
2.751999375E1,1.538599968E0,-5.095999837E-1,6.520000100E-2
2.754999531E1,2.811000049E-1,2.758100033E0,2.850600004E0
2.757999844E1,2.942899942E0,1.848199964E0,2.236899853E0
2.761000000E1,1.493999958E-1,3.640399933E0,1.857599974E0
2.763997188E1,-4.405999780E-1,5.323899746E0,2.148599863E0
2.765999375E1,1.577899933E0,5.249000072E0,-8.655999899E-1
2.768999531E1,2.277999878E0,1.712000012E0,-1.869899988E0
2.771999844E1,3.057600021E0,1.701399922E0,-6.387000084E-1
2.775000000E1,-5.052999854E-1,5.096899986E0,-8.287000060E-1
2.778000156E1,-2.461499929E0,4.215099812E0,5.417000055E-1
2.780997344E1,-1.201599956E0,1.804699898E0,1.239999942E-2
2.782999375E1,3.362999856E-1,-6.933000088E-1,-1.607699990E0
2.785999688E1,2.127899885E0,-3.567699909E0,-2.368000031E0
2.788999844E1,1.661099911E0,-2.893599987E0,-4.070199966E0
2.792000156E1,4.436999857E-1,-2.350299835E0,-5.026599884E0
2.794997188E1,-6.057999730E-1,-4.024799824E0,-3.345499992E0
2.796999219E1,-1.417699933E0,-4.851699829E0,-1.751299977E0
2.799999531E1,-1.328400016E0,-4.922199726E0,-1.447299957E0
2.802999688E1,-2.970999777E-1,-4.408899784E0,-1.057199955E0
2.806000000E1,-3.409000039E-1,-2.791800022E0,9.907999635E-1
2.809000156E1,-7.869999856E-2,1.223999977E0,4.584599972E0
2.811997188E1,1.853899956E0,1.262839985E1,4.832699776E0
2.813999531E1,-1.136899948E0,1.161740017E1,6.270999908E-1
2.816999688E1,-2.570799828E0,-4.326999784E-1,4.214600086E0
2.819999844E1,-2.161000013E0,3.204900026E0,4.098199844E0
2.823000156E1,3.852399826E0,1.084309959E1,-7.175199986E0
2.825997188E1,2.848599911E0,-5.433000088E0,-8.878299713E0
2.827999219E1,-3.724599838E0,-1.057249928E1,-4.927599907E0
2.830999688E1,-1.242100000E0,-5.331999779E0,4.083499908E0
2.833999844E1,2.418999910E0,4.207600117E0,-3.994699955E0
2.837000000E1,1.616099954E0,6.914099693E0,-3.627199888E0
2.840000156E1,1.975999951E0,-2.676199913E0,1.450899959E0
2.842997344E1,1.276000023E0,-6.162099838E0,1.525000036E-1
2.844999375E1,1.341799974E0,-5.755699635E0,-1.682000011E-1
2.847999688E1,1.179299951E0,-3.197899818E0,-4.510999918E-1
2.850999844E1,6.654999852E-1,3.699599981E0,-2.354099989E0
2.854000156E1,-2.125999928E0,1.804799914E0,-4.637999833E-1
2.856997188E1,-2.360699892E0,-7.799999714E-1,4.801899910E0
2.858999375E1,3.784999847E-1,-1.224799991E0,3.423499823E0
2.861999531E1,8.442999721E-1,1.554399967E0,-8.149999976E-1
2.864999844E1,1.200500011E0,3.178999901E0,1.961999893E0
2.868000000E1,4.070099831E0,2.999099970E0,2.809299946E0
2.871000156E1,3.215999842E0,4.048399925E0,3.471400023E0
2.873997344E1,3.839099884E0,5.143300056E0,4.213999808E-1
2.875999531E1,2.828799963E0,3.420799971E0,-1.050999999E0
2.878999688E1,1.653899908E0,1.557899952E0,-3.118299961E0
2.881999844E1,-1.033200026E0,2.873399973E0,-1.416899920E0
2.885000156E1,-2.421099901E0,3.467299938E0,1.023900032E0
2.887997188E1,-2.342200041E0,2.120300055E0,4.013999999E-1
2.889999375E1,-1.007799983E0,3.037999868E-1,-2.083400011E0
2.892999531E1,1.351999998E0,-1.988699913E0,-3.052399874E0
2.895999688E1,1.943300009E0,-2.539799929E0,-3.890100002E0
2.899000000E1,1.105599999E0,-2.569799900E0,-4.748399734E0
2.902000313E1,-2.105000019E-1,-4.113199711E0,-3.337599993E0
2.904997344E1,-1.547299981E0,-4.572000027E0,-1.238799930E0
2.906999531E1,-1.411199927E0,-4.184099674E0,-9.835000038E-1
2.909999688E1,-6.653999686E-1,-3.595999956E0,-4.132999778E-1
2.912999844E1,-5.422999859E-1,-3.000399828E0,1.129400015E0
2.916000156E1,-2.236000001E-1,-1.743099928E0,3.250499964E0
2.918997188E1,7.379999757E-1,9.539499283E0,6.864899635E0
2.920999375E1,-2.452499866E0,1.405259991E1,1.435799956E0
2.923999531E1,-3.643100023E0,-1.218899965E0,2.421200037E0
2.926999688E1,-4.110399723E0,-1.896499991E0,4.835099697E0
2.930000000E1,6.059299946E0,1.080280018E1,-4.753599644E0
2.933000156E1,4.445300102E0,-3.026999831E-1,-1.097299957E1
2.935997344E1,-2.083600044E0,-6.193500042E0,-4.420999885E-1
2.937999531E1,5.411999822E-1,-4.204599857E0,3.552799940E0
2.940999688E1,-8.586999774E-1,3.385599852E0,-5.007699966E0
2.943999844E1,-6.151999831E-1,5.081699848E0,-3.779199839E0
2.947000156E1,1.574599981E0,-1.995999962E-1,-3.046000004E-1
2.949997031E1,1.114099979E0,-4.021500111E0,1.440999955E-1
2.951999375E1,1.022499919E0,-5.079599857E0,6.879999489E-2
2.954999688E1,4.509999752E-1,-3.153199911E0,-6.485999823E-1
2.957999844E1,1.317499995E0,1.917999983E-1,-2.386999875E-1
2.961000000E1,1.586099982E0,8.754000068E-1,4.722999930E-1
2.964000156E1,4.813999832E-1,-2.089999914E0,2.649899960E0
2.966997344E1,-3.732999861E-1,-9.145999551E-1,1.331799984E0
2.968999531E1,-1.159399986E0,1.470799923E0,1.016700029E0
2.971999688E1,1.129400015E0,2.960199833E0,2.686399937E0
2.974999844E1,1.825799942E0,4.378600121E0,2.323099852E0
2.978000156E1,1.557699919E0,5.671899796E0,3.212599993E0
2.980997188E1,3.327600002E0,6.027899742E0,1.207299948E0
2.982999375E1,3.271299839E0,3.904799938E0,-1.452499986E0
2.985999688E1,1.448300004E0,1.554399967E0,-3.285199881E0
2.988999688E1,-1.080799937E0,1.997899890E0,1.692000031E-1
2.992000000E1,-1.762799978E0,3.267699957E0,1.585099936E0
2.994997031E1,-2.028899908E0,1.734799981E0,3.631999791E-1
2.996999375E1,7.349999994E-2,-3.050000072E-1,-1.206900001E0
2.999999531E1,2.392799854E0,-2.327399969E0,-2.097199917E0
3.002999844E1,1.915499926E0,-2.154599905E0,-3.560400009E0
3.006000000E1,5.029999614E-1,-2.160599947E0,-5.166899681E0
3.009000156E1,-1.440999955E-1,-4.305900097E0,-3.864099979E0
3.011997188E1,-9.933999777E-1,-5.258299828E0,-1.632399917E0
3.013999375E1,-1.370199919E0,-5.026499748E0,-1.397599936E0
3.016999688E1,-5.108000040E-1,-3.941900015E0,-8.867999911E-1
3.019999844E1,-2.608999908E-1,-2.838899851E0,1.519699931E0
3.023000938E1,-3.729999959E-1,-4.488999844E-1,5.068500042E0
3.025997031E1,1.483500004E0,1.106829929E1,5.978799820E0
3.027999375E1,-1.210799932E0,1.351839924E1,6.194999814E-1
3.030999531E1,-2.631899834E0,-7.437999845E-1,3.255699873E0
3.033999844E1,-2.855299950E0,6.250999570E-1,5.049999714E0
3.037000000E1,4.927599907E0,1.117280006E1,-6.446699619E0
3.040000156E1,2.539000034E0,-4.847799778E0,-1.124310017E1
3.042997656E1,-1.346099973E0,-7.379799843E0,6.451999545E-1
3.044999375E1,6.380999684E-1,-3.559499979E0,3.643599987E0
3.047999688E1,2.089999914E-1,5.057499886E0,-2.040099859E0
3.050999844E1,3.357999921E-1,4.949100018E0,-2.456199884E0
3.054000000E1,2.462999821E0,-1.852199912E0,4.368000031E-1
3.056997031E1,1.939499974E0,-4.731400013E0,-2.069999874E-1
3.058999375E1,1.635299921E0,-5.525799751E0,1.509999949E-2
3.061999531E1,6.173999906E-1,-3.089499950E0,-5.816999674E-1
3.064999688E1,8.434000015E-1,9.799000025E-1,3.008999825E-1
3.068000000E1,1.488899946E0,1.284299970E0,2.609999850E-2
3.071000156E1,1.236899972E0,-2.066299915E0,2.625699997E0
3.073997188E1,-2.404599905E0,-3.922999799E-1,-7.678999901E-1
3.075999531E1,-3.886600018E0,2.043200016E0,7.443999648E-1
3.078999688E1,2.794800043E0,2.698899984E0,2.530999899E0
3.081999844E1,2.873800039E0,4.529799938E0,2.390899897E0
3.085000000E1,1.295699954E0,5.223599911E0,1.592000008E0
3.087997031E1,3.238899946E0,4.131999969E0,-1.889999956E-1
3.089999375E1,8.496999741E-1,2.019099951E0,-2.089299917E0
3.091999531E1,-6.825000048E-1,5.331000090E-1,-1.064499974E0
3.094998594E1,7.958999872E-1,3.181200027E0,-6.890999675E-1
3.097998906E1,-1.333799958E0,5.562200069E0,2.991999984E-1
3.100999062E1,-2.341500044E0,2.058099985E0,5.608999729E-1
3.103999219E1,3.809999824E-1,-8.542999625E-1,-1.916399956E0
3.106999531E1,2.273699999E0,-2.921200037E0,-2.531599998E0
3.109999688E1,1.390799999E0,-2.471099854E0,-4.001100063E0
3.112999844E1,7.626999617E-1,-3.591499805E0,-4.424799919E0
3.116000000E1,-2.099999934E-1,-5.365299702E0,-2.881799936E0
3.118997188E1,-1.109099984E0,-5.623899937E0,-1.509400010E0
3.120999375E1,-1.092599988E0,-4.610899925E0,-1.299600005E0
3.123999531E1,-8.269999623E-1,-3.725099802E0,-7.892000079E-1
3.126999844E1,-9.483999610E-1,-2.620699883E0,9.716999531E-1
3.129999844E1,-4.661999941E-1,2.183500051E0,4.266399860E0
3.133000156E1,1.657599926E0,1.691339874E1,5.335099697E0
3.135997344E1,-3.242399931E0,3.831099987E0,2.337999940E-1
3.137999531E1,-4.249399662E0,-4.616199970E0,3.594499826E0
3.140999688E1,5.902999640E-1,5.014199734E0,1.600299954E0
3.143999844E1,8.037499428E0,1.138849926E1,-8.957599640E0
3.147000156E1,-6.480000168E-2,-2.784699917E0,-8.206099510E0
3.149997031E1,-4.245299816E0,-8.377099991E0,7.793999910E-1
3.151999375E1,-1.085999966E0,-4.694600105E0,3.766599894E0
3.154999688E1,3.759000003E-1,2.364099979E0,-3.783599854E0
3.157999688E1,1.981899977E0,5.882299900E0,-2.706599951E0
3.161000000E1,2.116400003E0,-1.108500004E0,6.193000078E-1
3.164000156E1,1.050899982E0,-4.142099857E0,5.618999600E-1
3.166997188E1,1.074199915E0,-4.176000118E0,-2.223999947E-1
3.168999375E1,1.120399952E0,-2.512899876E0,-6.557999849E-1
3.171999688E1,1.263700008E0,3.802999854E-1,-1.162500024E0
3.174999844E1,8.010999560E-1,2.911999822E-1,1.832000017E-1
3.178000000E1,-1.169999968E-2,-1.789299965E0,3.343299866E0
3.180997188E1,-8.134999871E-1,-8.844999671E-1,1.548200011E0
3.182999375E1,-1.002499938E0,1.581200004E0,9.765999913E-1
3.185999688E1,2.086400032E0,3.660799980E0,2.531699896E0
3.188999844E1,3.109499931E0,3.941900015E0,2.967700005E0
3.192000156E1,1.999199986E0,6.912399769E0,1.400499940E0
3.195000156E1,3.524099827E0,4.466599941E0,1.828999966E-1
3.197997344E1,3.113600016E0,1.752200007E0,-2.023399830E0
3.199999531E1,1.933099985E0,8.051999807E-1,-1.191900015E0
3.202999688E1,-2.633999884E-1,4.218699932E0,-8.599999547E-2
3.205999844E1,-3.033699989E0,3.818599939E0,1.961999983E-1
3.209000000E1,-1.962399960E0,9.793999791E-1,-9.970999956E-1
3.211997188E1,1.155300021E0,-2.244099855E0,-2.063600063E0
3.213999375E1,2.422699928E0,-3.481599808E0,-2.636299849E0
3.216999531E1,1.827299953E0,-2.358999968E0,-4.197499752E0
3.219999844E1,4.195999801E-1,-2.286099911E0,-4.589799881E0
3.222999844E1,-1.292500019E0,-3.922899961E0,-2.733199835E0
3.226000156E1,-2.128200054E0,-5.372999668E0,-1.429299951E0
3.228997344E1,-4.189999998E-1,-4.804399967E0,-2.057499886E0
3.230999531E1,-3.975999951E-1,-4.634500027E0,-1.374099970E0
3.233999688E1,-6.538000107E-1,-3.355799913E0,1.464399934E0
3.236999844E1,3.032000065E-1,8.222999573E-1,5.692299843E0
3.240000156E1,2.923799992E0,1.716530037E1,4.757100105E0
3.242997188E1,-3.791599989E0,2.895999908E0,1.035899997E0
3.244999375E1,-4.330999851E0,-3.534600019E0,4.217199802E0
3.247999688E1,-1.017000005E-1,4.369499683E0,4.881000042E0
3.250999688E1,7.696300030E0,1.001119995E1,-1.038549995E1
3.254000000E1,2.326999903E-1,-6.711599827E0,-7.168299675E0
3.257000312E1,-4.635499954E0,-1.192140007E1,-2.228000015E-1
3.259997344E1,-4.822999835E-1,1.264999956E-1,1.083599925E0
3.261999531E1,2.475299835E0,7.407999992E0,-7.148900032E0
3.264999688E1,1.981899977E0,7.134299755E0,-4.319900036E0
3.268000000E1,2.030799866E0,-3.923099995E0,9.316999912E-1
3.271000156E1,1.292500019E0,-5.500599861E0,2.080000006E-2
3.273997188E1,1.061100006E0,-3.744099855E0,-4.836999774E-1
3.275999375E1,1.717000008E0,-2.052099943E0,-8.879999518E-1
3.278999688E1,1.410300016E0,1.334299922E0,-2.265699863E0
3.281999844E1,4.778999984E-1,-7.016999722E-1,1.176800013E0
3.285000000E1,2.193000019E-1,-1.253399968E0,3.346499920E0
3.287997188E1,-1.981999993E0,3.172000051E-1,1.400699973E0
3.289999375E1,-1.846799970E0,2.681599855E0,2.231499910E0
3.292999375E1,2.637899876E0,2.603799820E0,2.710099936E0
3.295999688E1,2.601599932E0,4.166299820E0,1.890699983E0
3.298999844E1,2.719099998E0,6.564499855E0,1.406399965E0
3.302000156E1,3.435799837E0,3.839599848E0,-6.856999993E-1
3.304997188E1,2.938499928E0,2.165999889E0,-2.215499878E0
3.306999375E1,1.939000010E0,3.626699924E0,-1.333999991E0
3.309999688E1,-2.131899834E0,6.220699787E0,-3.604999781E-1
3.312999844E1,-3.460999966E0,2.672099829E0,2.736999989E-1
3.316000000E1,-5.275999904E-1,-4.176999927E-1,-9.468999505E-1
3.318997188E1,2.195499897E0,-2.954099894E0,-2.340399981E0
3.320999375E1,2.884599924E0,-3.310599804E0,-3.310799837E0
3.323999531E1,1.471399903E0,-2.451799870E0,-5.381399632E0
3.326999844E1,3.885000050E-1,-3.736799955E0,-4.808099747E0
3.330000000E1,-7.789999843E-1,-5.243799686E0,-2.351300001E0
3.333000156E1,-1.103199959E0,-5.127099991E0,-1.820799947E0
3.335997188E1,-6.439999938E-1,-4.076600075E0,-1.771499991E0
3.337999375E1,-9.129999876E-1,-3.527400017E0,-6.401999593E-1
3.340999688E1,-3.858000040E-1,-8.542999625E-1,3.265300035E0
3.343002969E1,6.686999798E-1,2.369600058E0,7.089799881E0
3.345998906E1,1.622299910E0,1.688290024E1,4.443099976E0
3.348999219E1,-4.351099968E0,5.681399822E0,-1.001899958E0
3.351999375E1,-3.690599918E0,-2.970299959E0,5.555299759E0
3.354999531E1,7.486000061E-1,9.861000061E0,-3.322999954E0
3.357999844E1,7.571899891E0,3.091699839E0,-7.464900017E0
3.361000000E1,-7.803999782E-1,-9.424499512E0,-4.302199841E0
3.364000156E1,-3.559499979E0,-9.215299606E0,9.765999913E-1
3.366997188E1,9.598999619E-1,3.849099874E0,-2.105599880E0
3.368999375E1,3.626399994E0,1.000539970E1,-6.800600052E0
3.371999688E1,2.034100056E0,2.364199877E0,-8.301999569E-1
3.374999844E1,1.067600012E0,-4.545499802E0,6.588999629E-1
3.378000000E1,7.410999537E-1,-4.921099663E0,-1.206000000E-1
3.380997188E1,4.672999978E-1,-2.695400000E0,-5.389999747E-1
3.382999219E1,8.603999615E-1,-7.745999694E-1,-1.186900020E0
3.385999531E1,5.629999638E-1,7.974999547E-1,-1.008499980E0
3.388999688E1,8.836999536E-1,-1.765899897E0,2.604599953E0
3.392000000E1,1.505599976E0,-1.716699958E0,3.491799831E0
3.395000156E1,1.518999934E-1,5.834999681E-1,1.028200030E0
3.397997344E1,2.260299921E0,3.265599966E0,1.821999907E0
3.399999375E1,3.687099934E0,3.510999918E0,2.376799822E0
3.402999688E1,1.365399957E0,5.768099785E0,2.186599970E0
3.405999844E1,2.547899961E0,6.552199841E0,8.216999769E-1
3.409000156E1,2.005399942E0,4.114599705E0,-4.016799927E0
3.411997188E1,7.497999668E-1,4.004999995E-1,-2.117100000E0
3.413999375E1,-2.076699972E0,2.212199926E0,3.137999773E-1
3.416999531E1,-1.526499987E0,5.020299911E0,3.956999779E-1
3.419999844E1,-1.081099987E0,2.893100023E0,-8.966999650E-1
3.422999844E1,1.195599914E0,-1.359300017E0,-2.011100054E0
3.426000156E1,2.686199903E0,-3.684299946E0,-2.765799999E0
3.428997188E1,1.235700011E0,-3.150399923E0,-4.234799862E0
3.430999531E1,5.575999618E-1,-2.780499935E0,-4.706399918E0
3.433999688E1,-5.898999572E-1,-3.755999804E0,-3.663199902E0
3.436999844E1,-1.324599981E0,-4.470699787E0,-2.177299976E0
3.440000156E1,-7.127999663E-1,-4.778399944E0,-2.038599968E0
3.442997188E1,-2.358999997E-1,-4.249700069E0,-8.976999521E-1
3.444999375E1,-3.425999880E-1,-3.549199820E0,2.678000033E-1
3.447999688E1,-7.321999669E-1,-1.259799957E0,4.756899834E0
3.450999688E1,1.516099930E0,8.476699829E0,7.399099827E0
3.454000000E1,-9.785999656E-1,1.198209953E1,-2.249899864E0
3.457000156E1,-2.920199871E0,-3.454999924E-1,3.064399958E0
3.459997344E1,1.582999974E-1,3.537899971E0,4.324299812E0
3.461999531E1,3.588599920E0,1.004790020E1,-3.951200008E0
3.464999688E1,3.176599979E0,-8.702999949E-1,-7.429800034E0
3.467999844E1,-5.078899860E0,-1.056729984E1,-3.691699982E0
3.471000000E1,-2.133800030E0,-4.094599724E0,2.356400013E0
3.473997188E1,3.577299833E0,5.369899750E0,-5.219599724E0
3.475999375E1,2.658599854E0,7.113499641E0,-5.791999817E0
3.478999688E1,1.880199909E0,-7.720999718E-1,5.175999999E-1
3.481999844E1,1.154899955E0,-4.495599747E0,9.030999541E-1
3.485000000E1,1.854599953E0,-4.544799805E0,3.001999855E-1
3.488000156E1,1.684299946E0,-2.230299950E0,3.534999788E-1
3.490997344E1,8.158999681E-1,2.883699894E0,-1.195699930E0
3.492999531E1,5.899999738E-1,2.076900005E0,6.473999619E-1
3.495999688E1,6.062999964E-1,-2.481699944E0,4.204800129E0
3.498999844E1,5.909000039E-1,-1.751999974E0,1.865000010E0
3.502000156E1,-6.227999926E-1,1.449399948E0,5.823999643E-1
3.504997188E1,3.299199820E0,2.320499897E0,1.575599909E0
3.506999375E1,4.204599857E0,3.299599886E0,2.328899860E0
3.509999531E1,8.259999752E-2,2.714799881E0,2.804100037E0
3.512999688E1,2.128099918E0,5.083399773E0,1.513399959E0
3.516000000E1,3.088899851E0,2.405200005E0,-2.357100010E0
3.519000156E1,2.814999819E0,2.652400017E0,-1.080899954E0
3.521997344E1,-8.192999959E-1,6.721699715E0,-1.445299983E0
3.523999531E1,-2.695699930E0,5.156699657E0,-6.123999953E-1
3.526999688E1,-2.180799961E0,2.495199919E0,4.628999829E-1
3.530000000E1,1.966999918E-1,-6.894999743E-1,-2.458400011E0
3.533000156E1,1.499699950E0,-3.242899895E0,-2.735999823E0
3.535997188E1,1.391099930E0,-2.652299881E0,-4.440799713E0
3.537999375E1,8.549999595E-1,-2.189100027E0,-5.115499973E0
3.540999688E1,-7.646999955E-1,-4.110000134E0,-3.469599962E0
3.544000000E1,-1.690299988E0,-4.917599678E0,-1.872299910E0
3.547000000E1,-1.296199918E0,-5.075699806E0,-2.048699856E0
3.550000312E1,-5.137999654E-1,-4.839799881E0,-1.983799934E0
3.552997344E1,-1.350999922E-1,-3.558799982E0,8.299999833E-1
3.554999531E1,3.579999804E-1,-1.528899908E0,4.014499664E0
3.557999688E1,2.009500027E0,1.067859936E1,8.625899315E0
3.560999844E1,-2.710599899E0,1.017430019E1,-1.119400024E0
3.564000156E1,-3.062599897E0,-1.812999964E0,4.375799656E0
3.566997188E1,-4.939000010E-1,8.974200249E0,2.763599873E0
3.568999375E1,4.719199657E0,1.093569946E1,-6.352299690E0
3.571999531E1,1.265200019E0,-6.940399647E0,-9.688499451E0
3.574999844E1,-3.290699959E0,-9.098799706E0,-1.568799973E0
3.578000000E1,1.265699983E0,-1.473999918E-1,7.211999893E-1
3.580997031E1,1.164199948E0,7.892499924E0,-5.084399700E0
3.582999219E1,8.651999831E-1,5.227200031E0,-2.049900055E0
3.585999531E1,2.226199865E0,-1.145799994E0,6.733999848E-1
3.588999688E1,1.313599944E0,-4.051700115E0,-8.020000160E-2
3.592000000E1,-3.150000051E-2,-4.626399994E0,1.898999959E-1
3.595000000E1,-9.275999665E-1,-2.719199896E0,-9.323999882E-1
3.597997188E1,1.296000004E0,4.511999786E-1,-1.082499981E0
3.599999375E1,3.227599859E0,3.867999911E-1,4.080999792E-1
3.602999531E1,3.006599903E0,-1.226699948E0,4.014299870E0
3.605999844E1,1.310699940E0,-1.310599923E0,2.298199892E0
3.609000000E1,-5.077999830E-1,1.396699905E0,1.249099970E0
3.611997031E1,2.601899862E0,2.502199888E0,2.624599934E0
3.613999375E1,3.190299988E0,3.235399961E0,4.444200039E0
3.616999531E1,1.434599996E0,2.338899851E0,3.355799913E0
3.619999688E1,3.249399900E0,6.401000023E0,4.988999963E-1
3.623000000E1,2.441900015E0,2.503999949E0,-2.860299826E0
3.626000156E1,-9.042999744E-1,2.516199827E0,-1.968899965E0
3.628997188E1,7.088999748E-1,6.389400005E0,-1.275300026E0
3.630999531E1,-4.451999962E-1,5.644099712E0,9.739999473E-2
3.633999688E1,-2.358899832E0,4.156399727E0,3.799999952E-1
3.636999844E1,2.854000032E-1,-7.534999847E-1,-2.659099817E0
3.640000000E1,8.058999777E-1,-2.957499981E0,-2.555199862E0
3.642997188E1,7.597999573E-1,-2.900499821E0,-4.462699890E0
3.644999219E1,4.052999914E-1,-3.360100031E0,-4.853300095E0
3.647999688E1,-1.718000025E-1,-5.021699905E0,-3.911799908E0
3.650999844E1,-1.708999991E0,-5.578000069E0,-2.042199850E0
3.654000000E1,-2.051199913E0,-4.857299805E0,-2.002799988E0
3.657000156E1,-1.258899927E0,-4.177999973E0,-8.079999685E-1
3.659997188E1,-1.995999962E-1,-2.548599958E0,1.972999930E0
3.661999375E1,2.439999878E-1,-6.999999750E-3,5.321399689E0
3.664999688E1,1.678999901E0,1.474479961E1,7.282899857E0
3.667999844E1,-2.363199949E0,6.330299854E0,-1.006799936E0
3.671000000E1,-1.965999961E0,-5.673699856E0,4.258699894E0
3.673997188E1,1.371500015E0,3.202399969E0,3.661399841E0
3.675999375E1,6.943799973E0,1.163409996E1,-7.833299637E0
3.678999531E1,-1.670899987E0,5.934000015E-1,-1.093620014E1
3.681999688E1,-4.618700027E0,-9.229299545E0,1.052399993E0
3.684999844E1,-9.390999675E-1,-3.762300014E0,3.843400002E0
3.688000000E1,2.357399940E0,4.030999660E0,-6.192100048E0
3.690997188E1,2.962499857E0,4.890799999E0,-3.625299931E0
3.692999531E1,1.892399907E0,-1.488000005E-1,-2.497999966E-1
3.695999688E1,5.814999938E-1,-5.735099792E0,1.104599953E0
3.698999844E1,1.081499934E0,-5.467499733E0,-2.360999882E-1
3.702000000E1,1.588799953E0,-1.702299953E0,-6.128999591E-1
3.704997031E1,4.263999760E-1,2.544800043E0,-8.722999692E-1
3.706999375E1,5.108999610E-1,-9.580000043E-1,6.712999940E-1
3.709999531E1,1.215399981E0,-8.364999890E-1,3.723599911E0
3.712999688E1,-1.846899986E0,8.047999740E-1,1.732299924E0
3.716000000E1,-2.818999887E-1,1.829899907E0,1.962700009E0
3.719000156E1,3.832199812E0,3.395699978E0,1.263999939E0
3.721997188E1,1.051599979E0,3.684299946E0,2.345399857E0
3.723999375E1,2.440899849E0,6.425899982E0,1.955799937E0
3.726999688E1,4.029900074E0,4.895599842E0,-1.379299998E0
3.730000000E1,1.642799973E0,9.014999866E-1,-2.624399900E0
3.733000156E1,-2.890999913E-1,1.600499988E0,7.899999619E-2
3.735997031E1,-3.094199896E0,5.766299725E0,6.972999573E-1
3.737999375E1,-4.158400059E0,4.307600021E0,-6.358999610E-1
3.740999688E1,4.043999910E-1,-5.799999833E-1,-1.617699981E0
3.743001094E1,1.657999992E0,-1.798099995E0,-2.056599855E0
3.745998906E1,3.217599869E0,-4.156099796E0,-3.190699816E0
3.748999063E1,1.237499952E0,-2.733000040E0,-5.392999649E0
3.751999219E1,1.507999897E-1,-3.038499832E0,-3.634999990E0
3.754999531E1,-1.755499959E0,-4.658599854E0,-2.324300051E0
3.757999531E1,-1.682799935E0,-3.958099842E0,-1.325399995E0
3.761000000E1,-1.096099973E0,-3.569999933E0,-1.027999997E0
3.764000156E1,-7.136999965E-1,-2.140699863E0,6.477999687E-1
3.766997188E1,6.809999794E-2,6.656999588E-1,5.408999920E0
3.768999375E1,6.633999944E-1,5.338200092E0,5.669399738E0
3.771999531E1,-1.105299950E0,8.965700150E0,7.836999893E-1
3.774999844E1,-1.941299915E0,-1.621199965E0,3.139400005E0
3.778000000E1,-2.275099993E0,-1.609999873E-2,3.806899786E0
3.781000156E1,4.858200073E0,1.046570015E1,-3.655699968E0
3.783997344E1,7.539999485E-2,-1.000999957E-1,-1.143459988E1
3.785999531E1,-5.208499908E0,-6.647500038E0,-5.459599972E0
3.788999688E1,-2.347999960E-1,-5.384099960E0,4.918699741E0
3.792000000E1,5.234999657E-1,1.654599905E0,-2.280200005E0
3.795000000E1,1.333999991E0,6.465799809E0,-5.451900005E0
3.797997188E1,1.690199971E0,-7.696999907E-1,-6.797999740E-1
3.799999375E1,6.437000036E-1,-4.159599781E0,7.208999991E-1
3.802999688E1,3.272999823E-1,-5.541999817E0,3.131999969E-1
3.805999844E1,1.086300015E0,-2.509099960E0,-4.187999964E-1
3.809000000E1,1.509099960E0,3.399999812E-3,5.080999732E-1
3.812000156E1,1.698199987E0,1.316999942E-1,2.529000044E-1
3.814997188E1,-6.779999733E-1,-2.374300003E0,1.560599923E0
3.816999531E1,-1.514899969E0,-1.719200015E0,2.513299942E0
3.819999688E1,-7.587999701E-1,2.092399836E0,1.881500006E0
3.822999844E1,2.114799976E0,2.671799898E0,1.025599957E0
3.826000156E1,2.162499905E0,4.187999725E0,2.345299959E0
3.828997031E1,7.074999809E-1,5.918399811E0,3.085799932E0
3.830999375E1,2.578299999E0,7.370999813E0,1.388000011E0
3.833999531E1,3.072599888E0,3.501899958E0,-2.408099890E0
3.836999844E1,1.112999916E0,1.721999943E-1,-2.011100054E0
3.839999844E1,-1.842099905E0,2.927500010E0,-4.250000045E-2
3.843000000E1,-2.725600004E0,4.526799679E0,-9.800000116E-3
3.845997344E1,-1.102599978E0,2.688199997E0,2.311999947E-1
3.847999375E1,4.901999831E-1,3.501999974E-1,-9.813999534E-1
3.850999688E1,2.637500048E0,-3.021299839E0,-3.037199974E0
3.854000000E1,2.234499931E0,-3.541199923E0,-4.316899776E0
3.857000156E1,5.339999795E-1,-3.402400017E0,-4.624499798E0
3.859997188E1,-1.179499984E0,-4.752899647E0,-2.473599911E0
3.861999375E1,-1.742599964E0,-4.752500057E0,-1.422199965E0
3.864999688E1,-9.000999928E-1,-4.321499825E0,-1.586599946E0
3.867999844E1,-7.767999768E-1,-4.160799980E0,-3.122999966E-1
3.871000000E1,-9.763999581E-1,-2.769299984E0,2.184200048E0
3.873997031E1,-6.638000011E-1,8.534999490E-1,5.679899693E0
3.875999219E1,8.529999852E-1,7.537899971E0,4.662199974E0
3.878999531E1,1.271799922E0,1.218139935E1,-6.607999802E-1
3.881999688E1,-8.804000020E-1,-1.966499925E0,4.621900082E0
3.885000000E1,-3.029999882E-2,-3.278299809E0,4.936500072E0
3.888000000E1,5.950699806E0,1.106269932E1,-1.064669991E1
3.890997188E1,-5.722699642E0,-1.070299983E0,-9.055299759E0
3.892999375E1,-5.858200073E0,-7.240299702E0,-5.315999985E-1
3.895999688E1,1.201999933E-1,-5.418099880E0,6.099899769E0
3.898999844E1,2.999899864E0,2.066200018E0,-5.460199833E0
3.902000000E1,3.484399796E0,5.593100071E0,-5.531099796E0
3.904997188E1,1.405799985E0,-8.395999670E-1,7.048000097E-1
3.906999375E1,-2.287999988E-1,-4.356800079E0,1.479599953E0
3.909999531E1,-6.732999682E-1,-5.194200039E0,-4.959999919E-1
3.912999688E1,2.727999985E-1,-2.358399868E0,-2.608000040E-1
3.916000000E1,1.400000006E-1,4.669999778E-1,1.489000022E-1
3.919000156E1,-2.016000003E-1,2.382999957E-1,6.114999652E-1
3.921997188E1,-9.115999937E-1,-1.316999912E0,2.577899933E0
3.923999375E1,-8.880999684E-1,8.353999853E-1,2.742199898E0
3.926999688E1,2.969999909E-1,2.506599903E0,6.198999882E-1
3.929999844E1,2.362499952E0,3.545300007E0,2.377199888E0
3.933000156E1,-4.652999938E-1,3.710999966E0,1.706799984E0
3.935997031E1,3.138999939E0,6.412299633E0,-1.155300021E0
3.937999219E1,3.127099991E0,3.300999880E0,-1.926299930E0
3.940999531E1,2.191900015E0,4.514999866E0,-9.361000061E-1
3.943999844E1,-6.712999940E-1,4.667099953E0,-2.523599863E0
3.947000000E1,-2.870699883E0,4.693799973E0,-2.812999785E-1
3.950000156E1,-2.649399996E0,2.586599827E0,-6.686999798E-1
3.952997188E1,1.431999922E0,-2.662499905E0,-2.384399891E0
3.954999531E1,2.622200012E0,-4.022399902E0,-3.295099974E0
3.957999531E1,1.162500024E0,-2.736299992E0,-5.064499855E0
3.960999844E1,2.146999985E-1,-3.044499874E0,-5.410699844E0
3.964000000E1,-3.777999878E-1,-5.016599655E0,-2.924000025E0
3.966997188E1,-9.505999684E-1,-5.387099743E0,-1.045199990E0
3.968999219E1,-8.050999641E-1,-4.950399876E0,-1.171299934E0
3.971999531E1,-1.216199994E0,-3.605599880E0,3.474999964E-1
3.974999688E1,-8.245999813E-1,-2.785300016E0,2.519000053E0
3.978000000E1,1.290999949E-1,3.842700005E0,6.009099960E0
3.981000156E1,8.298999667E-1,1.504909992E1,8.170999885E-1
3.983997188E1,-2.422699928E0,2.746099949E0,1.273399949E0
3.985999531E1,-9.593999982E-1,4.349699974E0,4.564399719E0
3.988999688E1,9.556999803E-1,7.659799576E0,-2.305099964E0
3.991999844E1,7.825999856E-1,-1.253849983E1,-1.039050007E1
3.995000156E1,-6.157399654E0,-9.596799850E0,-4.640299797E0
3.997997188E1,1.668900013E0,8.106800079E0,1.227299929E0
3.999999375E1,-6.085000038E-1,1.081339931E1,-5.399300098E0
4.002999531E1,1.444199920E0,-7.102999687E-1,1.543699980E0
4.005999688E1,3.374199867E0,-4.799599648E0,6.234999895E-1
4.009000000E1,3.073000014E-1,-2.633100033E0,-1.694299936E0
4.012000000E1,-1.759999990E-2,-6.775999665E-1,1.537699938E0
4.014997188E1,1.034699917E0,-2.449999936E-2,-4.017999768E-1
4.016999375E1,4.050000012E-1,4.319999740E-2,-9.193999767E-1
4.019999688E1,1.209999993E-2,-1.428200006E0,1.614399910E0
4.022999844E1,9.099999443E-3,-9.093999863E-1,3.069299936E0
4.026000156E1,-3.440999985E-1,2.505999804E-1,3.795599937E0
4.028997188E1,8.700000048E-1,1.896899939E0,1.467599988E0
4.030999375E1,1.833199978E0,2.215299845E0,-1.489999983E-2
4.033999531E1,8.156999946E-1,3.833899975E0,1.304000020E0
4.036999688E1,1.369699955E0,3.597699881E0,2.153800011E0
4.040000000E1,4.785999954E-1,5.131899834E0,6.327999830E-1
4.043000313E1,1.567699909E0,1.678099990E0,-1.253999949E0
4.045997344E1,2.061100006E0,2.873100042E0,-1.161599994E0
4.047999531E1,2.970999777E-1,5.517799854E0,-2.009500027E0
4.050999688E1,-4.110099792E0,4.429800034E0,7.251999974E-1
4.053999844E1,3.959999979E-2,7.184999585E-1,-9.261999726E-1
4.057000156E1,2.510499954E0,-3.359599829E0,-3.226300001E0
4.059997188E1,2.554999888E-1,-3.849900007E0,-3.295699835E0
4.061999375E1,-1.266999990E-1,-3.417799950E0,-3.264099836E0
4.064999531E1,6.790000200E-2,-3.998399973E0,-3.529299974E0
4.067999844E1,-8.934999704E-1,-4.323299885E0,-2.139899969E0
4.071000000E1,-1.355199933E0,-3.749899864E0,-1.188599944E0
4.074000156E1,-9.079999924E-1,-3.257099867E0,-4.804999828E-1
4.076997344E1,-2.935000062E-1,-1.700699925E0,1.324899912E0
4.078999531E1,-3.795999885E-1,-9.308999777E-1,2.202999830E0
4.081999688E1,-1.111500025E0,2.108299971E0,6.037999630E0
4.084999844E1,-1.609200001E0,9.602499962E0,1.679799914E0
4.088000000E1,-7.749999762E-1,3.440099955E0,-1.543799996E0
4.090997188E1,1.097999930E0,4.271699905E0,6.091899872E0
4.092999375E1,3.466899872E0,9.759399414E0,3.145000041E-1
4.095999688E1,3.936499834E0,-1.183499932E0,-1.033129978E1
4.098999844E1,-7.129299641E0,-8.944399834E0,-2.561199903E0
4.101999844E1,-3.764199972E0,-3.774499893E0,5.961299896E0
4.105000156E1,1.629599929E0,3.801399946E0,-4.143199921E0
4.107997344E1,3.313899994E0,5.255499840E0,-4.566899776E0
4.109999531E1,3.328399897E0,-5.180999637E-1,-9.473999739E-1
4.112999688E1,8.892999887E-1,-5.264199734E0,7.695999742E-1
4.116000000E1,-1.802999973E-1,-5.512799740E0,2.741000056E-1
4.119000156E1,3.716000021E-1,-2.224299908E0,-3.809999824E-1
4.121997188E1,2.281999886E-1,2.416899920E0,-7.361999750E-1
4.123999375E1,-1.184299946E0,2.292500019E0,-8.567999601E-1
4.126999688E1,-1.519500017E0,-9.379999638E-1,4.394099712E0
4.129999844E1,2.648999989E-1,-7.440000027E-2,3.836999893E0
4.133000000E1,-1.705500007E0,2.378999949E0,1.367799997E0
4.136000156E1,3.115299940E0,3.379199982E0,2.091099977E0
4.138997344E1,1.286099911E0,3.767599821E0,2.645999908E0
4.140999531E1,1.750000000E0,7.708299637E0,5.789999962E-1
4.143999688E1,1.449599981E0,3.867999792E0,-2.742499828E0
4.147000000E1,1.423599958E0,5.332999825E-1,-1.736199975E0
4.150000156E1,8.969999552E-1,4.643499851E0,6.740999818E-1
4.152997188E1,-2.355399847E0,5.404200077E0,2.480999976E-1
4.154999375E1,-3.331499815E0,4.091300011E0,2.989999950E-1
4.157999688E1,-5.514000058E-1,7.432999611E-1,-1.280200005E0
4.160999844E1,3.038499832E0,-2.865299940E0,-2.845799923E0
4.164000000E1,2.721199989E0,-2.964699984E0,-3.956699848E0
4.166997031E1,9.761999846E-1,-3.319199800E0,-5.384699821E0
4.168999219E1,-1.669999957E-1,-4.418099880E0,-4.695699692E0
4.171999531E1,-1.661099911E0,-5.398699760E0,-2.569099903E0
4.174999688E1,-1.801399946E0,-4.984899998E0,-2.250099897E0
4.178000000E1,-8.844999671E-1,-4.047599792E0,-1.517799973E0
4.181000156E1,-3.513000011E-1,-2.500900030E0,1.807399988E0
4.183997188E1,-7.985999584E-1,1.355299950E0,5.932600021E0
4.185999375E1,-1.337299943E0,6.003599644E0,6.353399754E0
4.188999688E1,-8.258000016E-1,1.198029995E1,-3.384999931E-1
4.191999844E1,-1.924799919E0,-1.500899911E0,2.724699974E0
4.195000000E1,-1.540599942E0,-9.300000034E-3,6.219899654E0
4.197997188E1,7.891499996E0,1.052320004E1,-7.433199883E0
4.199999375E1,3.141599894E0,1.014400005E0,-1.408979988E1
4.202999531E1,-7.399600029E0,-6.705599785E0,-3.963299990E0
4.205999688E1,9.399999864E-3,-4.176899910E0,5.168099880E0
4.209000000E1,-6.989999861E-2,2.233299971E0,-4.477999687E0
4.212000000E1,-1.984999925E-1,5.200799942E0,-3.961699963E0
4.214997188E1,1.230899930E0,-1.102399945E0,5.181999803E-1
4.216999375E1,8.581999540E-1,-3.646999836E0,2.390999943E-1
4.219999688E1,1.219200015E0,-5.169099808E0,3.583000004E-1
4.222999844E1,6.751999855E-1,-2.917199850E0,-2.601000071E-1
4.226000000E1,1.568999887E-1,6.900999546E-1,-3.166999817E-1
4.228997188E1,-7.029999793E-2,1.119799972E0,-5.879999697E-2
4.230999375E1,6.265999675E-1,-1.545199990E0,2.959599972E0
4.233999375E1,-4.429999888E-1,-1.700799942E0,2.336400032E0
4.236999688E1,-2.749799967E0,2.400899887E0,3.342999816E-1
4.240000000E1,2.011299849E0,2.703500032E0,2.401799917E0
4.243001250E1,1.788899899E0,4.355099678E0,2.583999872E0
4.245997188E1,1.100000024E0,5.742499828E0,1.664399981E0
4.247999375E1,2.424499989E0,5.601199627E0,-3.680000007E-1
4.250999688E1,2.231099844E0,2.948400021E0,-2.846799850E0
4.253999844E1,1.363999993E-1,2.375399828E0,-1.008700013E0
4.257000000E1,-1.746299982E0,6.621799946E0,-3.360999823E-1
4.259997031E1,-4.388400078E0,5.203000069E0,2.138999999E-1
4.261999375E1,-2.671799898E0,1.774599910E0,-1.250899911E0
4.264999531E1,1.859599948E0,-2.857499838E0,-3.097699881E0
4.267999688E1,2.690699816E0,-3.980700016E0,-4.157700062E0
4.271000000E1,7.278999686E-1,-3.055899858E0,-6.000599861E0
4.274000156E1,-8.839999884E-2,-4.011699677E0,-4.680399895E0
4.276997188E1,-1.643599987E0,-5.522799969E0,-1.163999915E0
4.278999375E1,-1.973799944E0,-5.935699940E0,-9.560999870E-1
4.281999688E1,-1.011999965E0,-5.104099751E0,-9.043999910E-1
4.284999844E1,-1.411599994E0,-3.084599972E0,8.046999574E-1
4.288000000E1,-1.202700019E0,8.299999870E-3,3.951299906E0
4.290997188E1,2.042599916E0,1.325489998E1,5.609299660E0
4.292999375E1,-8.379999548E-2,1.270599937E1,-5.049999803E-2
4.295999531E1,-2.222399950E0,-4.982999861E-1,1.432699919E0
4.298999844E1,-1.963699937E0,-4.534999847E0,4.066199780E0
4.302000000E1,4.383500099E0,8.939299583E0,-2.889299870E0
4.305000156E1,5.130000114E-1,5.787499905E0,-1.156439972E1
4.307997344E1,-5.608399868E0,-6.884500027E0,-1.626199961E0
4.309999531E1,-1.253600001E0,-7.681499958E0,3.581499815E0
4.312999688E1,2.399199963E0,-1.485999942E0,-9.901999831E-1
4.315999844E1,2.669899940E0,6.703799725E0,-6.260900021E0
4.319000000E1,6.858999729E-1,2.523099899E0,-4.756999910E-1
4.321997188E1,-6.097999811E-1,-3.911599874E0,3.734000027E-1
4.323999375E1,-3.519999981E-1,-5.253999710E0,4.800000042E-2
4.326999531E1,5.498999953E-1,-3.979599953E0,-4.629999995E-1
4.329999844E1,8.141999841E-1,-1.761000007E-1,-7.015999556E-1
4.333000000E1,1.032099962E0,1.201799989E0,-6.129999757E-1
4.336000156E1,1.778199911E0,-2.427099943E0,1.567600012E0
4.338997344E1,6.028000116E-1,-1.331200004E0,1.324199915E0
4.340999531E1,-2.751999855E0,1.990599990E0,-7.705000043E-1
4.343999688E1,-1.273199916E0,2.796700001E0,9.919999838E-1
4.346999844E1,2.259700060E0,3.631599903E0,2.256299973E0
4.350000156E1,-5.432999730E-1,4.683000088E0,1.773999929E0
4.352997188E1,1.371099949E0,5.769700050E0,1.196799994E0
4.354999375E1,3.217199802E0,3.692199945E0,5.831999779E-1
4.357999688E1,2.963799953E0,2.017999887E0,-3.740700006E0
4.360999844E1,-1.325599909E0,1.133199930E0,-2.013000011E0
4.364000000E1,-2.059599876E0,4.134500027E0,1.536499977E0
4.367000156E1,-2.965399981E0,2.813099861E0,9.300000034E-3
4.369997344E1,-5.697999597E-1,5.153999925E-1,-1.113600016E0
4.371999531E1,1.462799907E0,-8.823999763E-1,-2.167199850E0
4.374999688E1,2.529700041E0,-1.775599957E0,-3.533900023E0
4.378000000E1,1.228099942E0,-1.916799903E0,-4.430500031E0
4.381000156E1,5.949999765E-2,-4.289999962E0,-4.105799675E0
4.383997188E1,-1.276600003E0,-6.348999977E0,-2.250599861E0
4.385999375E1,-1.558300018E0,-6.073999882E0,-1.816599965E0
4.388999688E1,-6.629999876E-1,-4.608500004E0,-1.343699932E0
4.391999844E1,-1.099499941E0,-3.040699959E0,3.798999786E-1
4.395000000E1,-5.439999700E-1,-3.807999790E-1,2.604099989E0
4.398000312E1,1.160300016E0,1.009289932E1,5.327399731E0
4.400997344E1,-1.259299994E0,1.023519993E1,-5.663999915E-1
4.402999531E1,-2.004299879E0,1.156199932E0,9.512999654E-1
4.405999688E1,-2.245499849E0,-5.643899918E0,3.101399899E0
4.408999844E1,2.121299982E0,4.457399845E0,-1.852999926E0
4.412000156E1,4.971600056E0,7.557699680E0,-8.481299400E0
4.414997031E1,-3.290400028E0,-3.553499937E0,-3.032199860E0
4.416999375E1,-1.429700017E0,-5.924799919E0,8.486999869E-1
4.419999688E1,2.144999951E-1,-2.807600021E0,4.883999825E-1
4.422999844E1,1.939299941E0,3.918699980E0,-4.776299953E0
4.426000000E1,1.228399992E0,2.969899893E0,-2.230700016E0
4.429000313E1,7.090000063E-2,-3.101999998E0,2.245999873E-1
4.431997188E1,7.631999850E-1,-4.976699829E0,-2.479999885E-2
4.433999531E1,1.495199919E0,-3.700599909E0,-6.022999883E-1
4.436999688E1,1.702899933E0,-2.439999953E-2,-1.194899917E0
4.440000000E1,2.586999834E-1,9.947999716E-1,-9.969999790E-1
4.443000156E1,-2.193000019E-1,-2.285500050E0,2.158999920E0
4.445997188E1,3.297999799E-1,-5.238999724E-1,2.026399851E0
4.447999375E1,-5.946999788E-1,4.152999818E-1,1.595999897E-1
4.450999531E1,-1.218699932E0,2.246799946E0,7.294999957E-1
4.453999844E1,2.714399815E0,3.466300011E0,1.999799967E0
4.457000000E1,5.708000064E-1,4.628799915E0,1.842799902E0
4.459997188E1,1.801699996E0,5.606800079E0,6.186000109E-1
4.461999375E1,2.563400030E0,3.510599852E0,-1.404999971E0
4.464999531E1,1.864299893E0,2.007999897E0,-3.025499821E0
4.467999688E1,-2.014899969E0,2.042500019E0,1.322000027E-1
4.471000000E1,-2.209599972E0,3.696099997E0,1.054799914E0
4.474000156E1,-1.665499926E0,3.395099878E0,-1.064999998E-1
4.476997188E1,1.309799910E0,1.180599928E0,-2.344099998E0
4.478999375E1,3.364599943E0,-8.119999766E-1,-2.954299927E0
4.481999688E1,3.221199989E0,-2.754699945E0,-3.754699945E0
4.484999844E1,4.515999854E-1,-3.101399899E0,-4.813399792E0
4.488000000E1,-5.821999907E-1,-4.618799686E0,-4.145100117E0
4.490997188E1,-1.288900018E0,-5.170399666E0,-2.005699873E0
4.492999375E1,-9.642999768E-1,-5.018099785E0,-1.870599985E0
4.495999531E1,-3.749999776E-2,-4.332399845E0,-1.303200006E0
4.498999844E1,-2.502999902E-1,-3.171499968E0,1.618399978E0
4.502000000E1,-1.711999923E-1,-6.469999999E-2,4.288300037E0
4.505000156E1,1.479200006E0,1.101669979E1,4.826699734E0
4.507997188E1,-3.237799883E0,9.705699921E0,-5.749999732E-2
4.509999531E1,-3.611399889E0,9.742999673E-1,2.598500013E0
4.512999688E1,-2.615499973E0,2.268999964E-1,4.426399708E0
4.515999844E1,4.235700130E0,7.184599876E0,-5.850199699E0
4.519000000E1,6.714299679E0,-4.514599800E0,-9.066100121E0
4.521997188E1,-4.265699863E0,-7.752499580E0,-3.554899931E0
4.523999375E1,-4.287799835E0,-1.833499908E0,2.487599850E0
4.526999531E1,-1.759400010E0,3.209499836E0,-4.890999794E-1
4.529999844E1,7.565000057E-1,3.313899994E0,-2.444000006E0
4.533000000E1,3.468499899E0,-9.559999704E-1,-7.849999666E-1
4.536000156E1,1.608399987E0,-3.760200024E0,3.253999949E-1
4.538997188E1,7.178999782E-1,-4.411600113E0,3.899999857E-1
4.540999531E1,9.714999795E-1,-2.002500057E0,1.924999952E-1
4.543999688E1,1.124499917E0,4.676999748E-1,-6.531999707E-1
4.546999844E1,-6.920000166E-2,1.152499914E0,1.780999899E-1
4.550000000E1,-3.810000047E-2,-1.789499998E0,4.210499763E0
4.552997188E1,1.206000000E-1,-1.463899970E0,-3.492999971E-1
4.554999375E1,-2.483299971E0,1.366799951E0,-3.833999932E-1
4.557999531E1,1.276099920E0,2.299799919E0,2.433199883E0
4.560999688E1,2.445899963E0,4.315299988E0,2.009999990E0
4.564000000E1,-1.756999940E-1,4.997399807E0,2.532799959E0
4.567000156E1,2.290799856E0,5.267199993E0,9.412999749E-1
4.569997188E1,2.307600021E0,1.686999917E0,-2.318899870E0
4.571999375E1,2.247099876E0,1.129299998E0,-8.357999921E-1
4.574999688E1,6.293999553E-1,5.835700035E0,-2.602999806E-1
4.577999844E1,-3.643100023E0,4.349199772E0,2.876999974E-1
4.581000156E1,-2.511699915E0,1.670699954E0,-3.258000016E-1
4.583997188E1,8.513000011E-1,-2.242199898E0,-2.023099899E0
4.585999375E1,2.332299948E0,-3.918799877E0,-2.610899925E0
4.588999531E1,2.589499950E0,-3.695299864E0,-4.068399906E0
4.591999844E1,1.035200000E0,-2.991299868E0,-5.121599674E0
4.595000000E1,-4.120000005E-1,-4.241399765E0,-3.557600021E0
4.598000156E1,-1.734699965E0,-4.747499943E0,-1.490399957E0
4.600997188E1,-1.571599960E0,-4.180099964E0,-1.427899957E0
4.602999531E1,-1.242299914E0,-3.727399826E0,-8.928999901E-1
4.605999688E1,-1.128799915E0,-2.268100023E0,2.291699886E0
4.608999844E1,8.075000048E-1,1.430599928E0,7.658099651E0
4.612000000E1,2.104899883E0,1.486049938E1,3.677199841E0
4.614997188E1,-3.569700003E0,4.052899837E0,-1.749999970E-1
4.616999375E1,-4.669399738E0,-3.677999973E0,3.616299868E0
4.619999531E1,-1.637799978E0,5.526400089E0,2.851500034E0
4.622999688E1,4.973899841E0,4.687299728E0,-8.042399406E0
4.626000000E1,-2.175600052E0,-7.133599758E0,-7.498099804E0
4.629000156E1,-3.105099916E0,-7.042699814E0,2.642699957E0
4.631997344E1,6.617000103E-1,1.126999974E0,-3.000000026E-3
4.633999531E1,2.434700012E0,7.040699959E0,-5.674099922E0
4.636999688E1,2.112999916E0,2.864699841E0,-2.327999830E0
4.639999844E1,1.318300009E0,-3.832999945E0,5.913999677E-1
4.643000156E1,3.712999821E-1,-5.598700047E0,7.179999948E-1
4.645997188E1,3.474999964E-1,-3.394599915E0,-5.669999868E-2
4.647999375E1,6.516000032E-1,-9.067999721E-1,-3.217000067E-1
4.650999688E1,9.106999636E-1,1.817499995E0,-7.080000043E-1
4.653999844E1,7.217999697E-1,-1.746899962E0,2.029599905E0
4.657000000E1,5.374999642E-1,-4.029999971E-1,1.570400000E0
4.660000312E1,-2.712800026E0,1.260800004E0,1.743199944E0
4.662997344E1,1.312299967E0,1.335299969E0,1.594299912E0
4.664999531E1,3.410499811E0,2.730299950E0,7.008999586E-1
4.667999688E1,-2.939999998E-1,4.238100052E0,1.914699912E0
4.671000000E1,1.242699981E0,6.687299728E0,1.478699923E0
4.674000000E1,2.011299849E0,4.252900124E0,-2.043499947E0
4.676997188E1,2.304499865E0,1.809499979E0,-2.472599983E0
4.678999375E1,-5.081999898E-1,7.657999992E-1,-7.119999528E-1
4.681999688E1,-1.254899979E0,2.706599951E0,9.491999745E-1
4.684999844E1,-2.429999828E0,3.095899820E0,-1.973000020E-1
4.688000000E1,-1.085399985E0,4.420999885E-1,-7.292999625E-1
4.691000312E1,1.850999951E0,-2.474099874E0,-2.515499830E0
4.693997344E1,2.845899820E0,-2.773999929E0,-3.597100019E0
4.695999531E1,1.963499904E0,-2.159499884E0,-4.267099857E0
4.698999688E1,2.092999965E-1,-2.897099972E0,-4.146599770E0
4.701999844E1,-1.433200002E0,-3.867499828E0,-2.417999983E0
4.705000156E1,-1.881899953E0,-4.238500118E0,-1.825399995E0
4.707997188E1,-8.517000079E-1,-4.331299782E0,-1.170300007E0
4.709999375E1,-8.503999710E-1,-4.076299667E0,2.789999917E-2
4.712999531E1,-6.935999990E-1,-2.963299990E0,2.589900017E0
4.715999844E1,2.007200003E0,3.654299974E0,7.021499634E0
4.719000000E1,-3.454999924E-1,1.495059967E1,1.252399921E0
4.722000313E1,-3.972299814E0,8.879999816E-2,1.724599957E0
4.724997188E1,-2.972399950E0,-9.745000005E-1,4.018799782E0
4.726999531E1,6.359999776E-1,5.307199955E0,5.192999840E-1
4.729999688E1,7.359799862E0,2.310400009E0,-6.564300060E0
4.733000000E1,-1.926599979E0,-6.335700035E0,-6.378699780E0
4.736000000E1,-3.615999937E0,-5.254799843E0,2.046399832E0
4.738997188E1,3.323999941E-1,1.948899984E0,-1.641099930E0
4.740999375E1,1.208500028E0,4.635699749E0,-4.423299789E0
4.743000938E1,1.369599938E0,3.030900002E0,-2.595799923E0
4.745998750E1,1.621899962E0,-1.866400003E0,1.539999992E-1
4.748998906E1,7.335999608E-1,-3.967700005E0,5.791999698E-1
4.751999219E1,1.286700010E0,-3.630199909E0,-1.164999977E-1
4.754999219E1,7.234999537E-1,-6.539999843E-1,-7.985999584E-1
4.757999531E1,1.178999990E-1,1.017499924E0,-3.016999960E-1
4.760999688E1,1.680499911E0,-1.650900006E0,2.755499840E0
4.764000000E1,4.869000018E-1,-1.079499960E0,1.387499928E0
4.767000156E1,-2.767799854E0,7.827999592E-1,1.270900011E0
4.769997188E1,1.183200002E0,2.751299858E0,1.664199948E0
4.771999375E1,3.448699951E0,3.145999908E0,1.517300010E0
4.774999688E1,-1.984999925E-1,3.573699951E0,1.537099957E0
4.777999844E1,1.173300028E0,6.491699696E0,1.502799988E0
4.781000000E1,2.747999907E0,2.451299906E0,-1.551800013E0
4.783997188E1,3.680299997E0,1.121699929E0,-1.441299915E0
4.785999375E1,1.255199909E0,2.095900059E0,-1.010499954E0
4.788999531E1,-1.041000009E0,5.957699776E0,-4.526999891E-1
4.791999844E1,-2.732100010E0,2.011600018E0,-6.897000074E-1
4.795000000E1,-1.623099923E0,-1.363999993E-1,2.038999945E-1
4.798000156E1,1.661000013E0,-1.915099978E0,-1.848099947E0
4.800997188E1,2.211599827E0,-2.497200012E0,-3.476399899E0
4.802999531E1,1.635599971E0,-2.543699980E0,-4.580899715E0
4.805999688E1,1.374000013E-1,-4.317399979E0,-4.046599865E0
4.808999844E1,-1.655599952E0,-5.292099953E0,-2.172499895E0
4.812000000E1,-6.294999719E-1,-4.600199699E0,-1.755299926E0
4.814997188E1,1.070999950E-1,-3.564199924E0,-7.483999729E-1
4.816999375E1,-8.259999752E-2,-3.045399904E0,7.576999664E-1
4.819999531E1,3.729999959E-1,-1.091799974E0,3.196599960E0
4.822999688E1,1.321699977E0,8.250399590E0,4.514599800E0
4.826000000E1,-1.838599920E0,1.139289951E1,-5.263999701E-1
4.829000156E1,-3.244999886E0,-2.350899935E0,2.922899961E0
4.831997188E1,-3.132699966E0,1.107499957E0,3.415599823E0
4.833999531E1,3.273999989E-1,8.303500175E0,-2.545699835E0
4.836999688E1,4.505799770E0,2.179100037E0,-6.635699749E0
4.839999844E1,-2.178699970E0,-7.661699772E0,-3.165499926E0
4.843000000E1,4.220999777E-1,-4.864900112E0,2.901199818E0
4.845997188E1,2.247400045E0,3.357199907E0,-4.014199734E0
4.847999375E1,1.458999991E0,6.506399632E0,-5.218899727E0
4.850999531E1,4.545999765E-1,3.995999992E-1,8.879999816E-2
4.853999844E1,1.925999969E-1,-4.086499691E0,4.443999827E-1
4.857000000E1,7.770999670E-1,-4.580100060E0,3.979999945E-2
4.860000156E1,9.517999887E-1,-2.617799997E0,-6.823999882E-1
4.862997344E1,8.172000051E-1,1.161199927E0,-6.006999612E-1
4.864999531E1,9.187999964E-1,1.214599967E0,-4.986999929E-1
4.867999688E1,1.733999997E-1,-2.706599951E0,1.263199925E0
4.870999844E1,-2.875999808E-1,-3.999999762E-1,1.904699922E0
4.874000156E1,-1.008599997E0,1.390100002E0,4.605000019E-1
4.876997031E1,5.686999559E-1,2.361700058E0,1.983500004E0
4.878999375E1,2.510299921E0,2.709100008E0,1.943300009E0
4.881999531E1,-3.885000050E-1,3.299700022E0,2.492199898E0
4.884999844E1,1.996699929E0,6.632899761E0,1.682999969E0
4.888000000E1,3.333599806E0,3.797999859E0,-1.783100009E0
4.891000156E1,2.685299873E0,1.441900015E0,-3.214099884E0
4.893997188E1,-1.034399986E0,1.354200006E0,-5.309000015E-1
4.895999375E1,-1.224699974E0,3.843599796E0,6.929000020E-1
4.898999688E1,-3.293900013E0,4.702399731E0,6.191999912E-1
4.901999844E1,-9.073999524E-1,1.005100012E0,-5.333999991E-1
4.905000000E1,1.770200014E0,-2.278399944E0,-2.373800039E0
4.907997188E1,2.977599859E0,-2.921599865E0,-3.798399925E0
4.909999375E1,1.822399974E0,-2.590499878E0,-4.378999710E0
4.912999531E1,2.064999938E-1,-4.409100056E0,-3.967899799E0
4.915999844E1,-1.601300001E0,-5.499000072E0,-2.089999914E0
4.919000000E1,-1.330399990E0,-5.172899723E0,-1.876799941E0
4.922000156E1,-3.599999845E-1,-4.504600048E0,-6.259999871E-1
4.924997344E1,-1.065500021E0,-3.422999859E0,2.035399914E0
4.926999531E1,-9.784999490E-1,-1.765799999E0,3.386999846E0
4.929999688E1,3.607199907E0,8.908899307E0,5.928400040E0
4.932999844E1,-1.113899946E0,1.387669945E1,-2.167099953E0
4.936000000E1,-4.934899807E0,-6.923999786E-1,3.961899996E0
4.938997188E1,-3.465499878E0,-3.642999828E-1,5.128799915E0
4.940999375E1,5.790799618E0,7.925299644E0,-5.593499660E0
4.943000938E1,8.741999626E0,1.190699935E0,-1.002849960E1
4.945998750E1,-1.927899957E0,-6.494599819E0,-1.083279991E1
4.948998906E1,-3.145000041E-1,-3.556699991E0,2.227900028E0
4.951999063E1,-3.570999801E-1,2.958499908E0,-8.471999764E-1
4.954999219E1,-2.527600050E0,3.814299822E0,-3.760999918E0
4.957999531E1,1.271600008E0,-6.110999584E-1,-4.325999916E-1
4.960999688E1,1.134299994E0,-4.535299778E0,3.240000084E-2
4.963999844E1,1.333499908E0,-5.243199825E0,-5.291999578E-1
4.967000000E1,1.001500010E0,-2.265899897E0,-7.279999554E-2
4.969997188E1,1.920199990E0,1.543699980E0,2.829000056E-1
4.971999375E1,1.793399930E0,1.364199996E0,1.503999978E-1
4.974999531E1,-1.218599916E0,-2.113100052E0,2.444399834E0
4.977999844E1,-2.023599863E0,2.216999978E-1,2.007400036E0
4.981000000E1,-8.348000050E-1,2.931799889E0,1.412199974E0
4.984000156E1,3.906899929E0,3.171000004E0,1.462899923E0
4.986997188E1,1.116899967E0,3.475199938E0,2.990399837E0
4.988999531E1,2.099900007E0,6.381000042E0,2.874199867E0
4.991999688E1,5.207799911E0,6.211099625E0,-4.737999737E-1
4.995000000E1,8.931999803E-1,2.977900028E0,-6.515100002E0
4.998000156E1,-3.221699953E0,-6.768000126E-1,-3.037999868E0
5.000997188E1,-2.278100014E0,2.703799963E0,1.722199917E0
5.002999375E1,-2.475899935E0,4.309599876E0,-3.574000001E-1
5.005999688E1,-1.256199956E0,3.169799805E0,-8.166999817E-1
5.008999844E1,1.526499987E0,-1.592099905E0,-3.033799887E0
5.012000000E1,3.017199993E0,-3.084399939E0,-3.453199863E0
5.015000156E1,1.606199980E0,-2.940999985E0,-3.978999853E0
5.017997344E1,-4.084999859E-1,-4.223899841E0,-3.594799995E0
5.019999375E1,-1.576399922E0,-4.847499847E0,-2.926699877E0
5.022999688E1,-1.329100013E0,-4.465899944E0,-2.745599985E0
5.026000000E1,-5.396000147E-1,-4.064599991E0,-2.548099995E0
5.029000156E1,-1.077199936E0,-4.178199768E0,3.224999905E-1
5.031997188E1,-1.624799967E0,-2.564499855E0,3.157199860E0
5.033999375E1,-6.750999689E-1,1.068499923E0,7.198299885E0
5.036999688E1,1.528299928E0,2.033370018E1,3.447799921E0
5.039999844E1,-4.114200115E0,3.905599833E0,6.019999832E-2
5.043000313E1,-3.717599869E0,2.840999961E-1,4.844999790E0
5.045997031E1,4.106800079E0,9.094999313E0,-4.360399723E0
5.047999375E1,9.547800064E0,3.876999855E0,-8.484099388E0
5.050999375E1,-1.252099991E0,-9.057700157E0,-8.375999451E0
5.053999844E1,-3.917599916E0,-7.465299606E0,2.867300034E0
5.057000000E1,2.988999784E-1,4.292699814E0,-1.797499895E0
5.060000156E1,5.313000083E-1,9.342800140E0,-5.996999741E0
5.062997188E1,2.005800009E0,-2.646100044E0,5.113999844E-1
5.064999531E1,1.476400018E0,-5.058300018E0,-1.560999900E-1
5.067999688E1,1.725699902E0,-5.306499958E0,-4.014999866E-1
5.070999844E1,1.524500012E0,-2.746999979E0,-1.435599923E0
5.074000000E1,3.359999880E-2,1.378799915E0,-3.377799988E0
5.076997188E1,-1.365000010E-1,-7.949999571E-1,5.277999640E-1
5.078999219E1,-5.177000165E-1,-1.835199952E0,3.905399799E0
5.081999531E1,-1.434899926E0,-1.217999980E-1,2.729699850E0
5.084999844E1,-2.109299898E0,1.046700001E0,1.873999983E-1
5.088000000E1,2.911499977E0,2.735299826E0,2.348299980E0
5.091000156E1,2.412899971E0,3.743899822E0,1.677299976E0
5.093997344E1,8.649999648E-2,4.277100086E0,3.204099894E0
5.095999375E1,2.605599880E0,7.606799603E0,9.210999608E-1
5.098999531E1,2.807699919E0,3.158399820E0,-3.132099867E0
5.101999844E1,1.430099964E0,2.781399965E0,-3.165199995E0
5.105000156E1,-3.482699871E0,4.100399971E0,-1.604200006E0
5.107997031E1,-2.117699862E0,3.433599949E0,7.416999936E-1
5.109999375E1,-2.410199881E0,3.022899866E0,3.529999778E-2
5.112999531E1,-2.368999869E-1,9.056999683E-1,-1.989999890E0
5.115999688E1,2.589699984E0,-2.102400064E0,-3.419299841E0
5.119000000E1,1.816599965E0,-2.431200027E0,-4.065000057E0
5.122000156E1,1.812999994E-1,-3.151099920E0,-4.590199947E0
5.124997188E1,-1.075500011E0,-5.267799854E0,-2.649399996E0
5.126999531E1,-1.457599998E0,-5.643300056E0,-1.673699975E0
5.129999531E1,-6.017999649E-1,-5.171199799E0,-2.272300005E0
5.132999844E1,-1.017000005E-1,-5.187999725E0,-1.764499903E0
5.136000000E1,-4.289999902E-1,-4.513799667E0,9.196999669E-1
5.138997031E1,-3.640999794E-1,7.726999521E-1,7.326699734E0
5.140999375E1,4.579899788E0,2.610599899E1,4.913700104E0
5.143001094E1,7.962999940E-1,2.030589867E1,-8.343999982E-1
5.145998594E1,-4.130000114E0,-3.360899925E0,3.085299969E0
5.148998906E1,-4.273699760E0,-6.033499718E0,4.268300056E0
5.151999063E1,7.163599968E0,5.719699860E0,-3.940799952E0
5.154999375E1,1.329800010E0,6.449599743E0,-1.235219955E1
5.157999531E1,-4.435599804E0,-3.787199974E0,-2.823999822E-1
5.160999688E1,-6.107000113E-1,-5.955100060E0,1.983599901E0
5.163999844E1,1.767399907E0,2.228999883E-1,-5.469099998E0
5.167000000E1,3.572299957E0,6.455899715E0,-4.423399925E0
5.169997188E1,1.601599932E0,9.479999542E-2,3.104999959E-1
5.171999375E1,8.181999922E-1,-3.417399883E0,6.733999848E-1
5.174999688E1,9.994999766E-1,-4.679800034E0,-2.852999866E-1
5.177999844E1,9.381999969E-1,-2.484899998E0,-1.300699949E0
5.181000000E1,1.049700022E0,-5.089999735E-2,-1.079299927E0
5.184000156E1,1.688099980E0,-6.049000025E-1,-4.535999894E-1
5.186997344E1,3.959999979E-1,-1.875699997E0,1.764599919E0
5.188999375E1,-7.346000075E-1,-4.386000037E-1,1.693899989E0
5.191999844E1,-1.325999975E0,6.524999738E-1,1.225199938E0
5.195000000E1,2.213500023E0,2.614399910E0,2.378399849E0
5.198000000E1,2.536599874E0,3.626699924E0,1.692399979E0
5.200997188E1,-4.973999858E-1,3.042999983E0,1.992399931E0
5.202999375E1,2.233000040E0,6.320199966E0,1.711499929E0
5.205999531E1,3.457399845E0,3.485699892E0,-2.196099997E0
5.208999844E1,2.160699844E0,1.187399983E0,-2.189699888E0
5.211999844E1,-5.378000140E-1,3.275199890E0,-1.670599937E0
5.215000156E1,-2.686499834E0,4.732100010E0,1.383700013E0
5.217997344E1,-2.482199907E0,3.276199818E0,1.747999936E-1
5.219999531E1,-4.221999943E-1,9.746999741E-1,-1.524199963E0
5.222999688E1,3.137699842E0,-2.440899849E0,-3.212800026E0
5.225999844E1,3.198499918E0,-2.596799850E0,-4.102200031E0
5.229000156E1,1.273599982E0,-2.596499920E0,-4.850899696E0
5.231997188E1,-1.649999917E-1,-4.879799843E0,-3.376199961E0
5.233999375E1,-1.361999989E0,-5.426199913E0,-2.101500034E0
5.236999531E1,-1.596099973E0,-4.712399960E0,-2.071300030E0
5.239999844E1,-8.109999895E-1,-4.082799911E0,-1.370199919E0
5.243000469E1,-1.452499986E0,-3.418099880E0,1.928799987E0
5.246000312E1,6.241999865E-1,-9.899999946E-2,7.063499928E0
5.248997188E1,5.628099918E0,1.757760048E1,4.735300064E0
5.250999531E1,-2.092299938E0,1.284469986E1,-2.676899910E0
5.253999688E1,-5.562299728E0,-4.480000019E0,3.537199974E0
5.256999844E1,-2.753999949E0,1.839999914E0,4.711599827E0
5.260000000E1,7.352599621E0,9.896499634E0,-8.152299881E0
5.262997031E1,1.387799978E0,-3.575999975E0,-8.627999306E0
5.264999375E1,-3.029500008E0,-7.694699764E0,-4.300399780E0
5.267999688E1,-1.652999997E0,-4.852600098E0,3.728099823E0
5.270999688E1,4.544000030E-1,3.608799934E0,-3.688099861E0
5.274000000E1,2.166899920E0,5.769399643E0,-3.981099844E0
5.277000156E1,1.773899913E0,-2.043799877E0,3.366999924E-1
5.279997344E1,9.656999707E-1,-5.700999737E0,8.218999505E-1
5.281999531E1,8.576999903E-1,-5.349899769E0,-4.081999958E-1
5.284999688E1,1.606999993E0,-1.711799979E0,-1.307899952E0
5.287999844E1,8.407999873E-1,2.641999960E0,-1.992699981E0
5.291000156E1,2.267999947E-1,-1.389699936E0,1.663199902E0
5.293997188E1,7.746999860E-1,-1.054799914E0,3.725600004E0
5.295999375E1,2.814999819E-1,1.407999992E-1,1.033200026E0
5.298999688E1,-5.722000003E-1,1.636600018E0,1.541899920E0
5.301999844E1,3.392899990E0,2.699899912E0,1.660699964E0
5.305000000E1,1.474499941E0,4.017300129E0,1.687199950E0
5.308000156E1,2.689699888E0,6.691799641E0,9.377999902E-1
5.310997188E1,2.844499826E0,3.703299999E0,-3.014199972E0
5.312999531E1,1.678099990E0,2.024800062E0,-2.955199957E0
5.315999688E1,-1.043599963E0,1.772199988E0,-1.568799973E0
5.318999844E1,-2.313599825E0,5.403299809E0,1.267400026E0
5.322000156E1,-3.310299873E0,4.692899704E0,-6.173999906E-1
5.324997188E1,2.462999970E-1,2.421999872E-1,-1.969799995E0
5.326999375E1,2.912600040E0,-2.462800026E0,-2.761999846E0
5.329999531E1,3.251399994E0,-3.653699875E0,-3.762799978E0
5.332999844E1,1.242499948E0,-3.003899813E0,-5.121599674E0
5.336000156E1,-8.769999444E-2,-4.329400063E0,-4.109399796E0
5.338997188E1,-1.778299928E0,-5.028199673E0,-1.597000003E0
5.340999375E1,-1.604299903E0,-4.759399891E0,-1.525399923E0
5.343999688E1,-5.855999589E-1,-4.534500122E0,-1.384599924E0
5.346999688E1,-5.934999585E-1,-3.468099833E0,1.080500007E0
5.350000000E1,-4.083999991E-1,-6.372999549E-1,4.866799831E0
5.353000156E1,4.015299797E0,1.340469933E1,6.530999660E0
5.355997188E1,-3.019799948E0,9.602499962E0,-2.833199978E0
5.357999375E1,-3.940299988E0,-9.249999523E-1,1.893799901E0
5.360999688E1,-1.620399952E0,-4.210700035E0,5.199999809E0
5.363999844E1,6.659399986E0,6.382599831E0,-3.665499926E0
5.367000000E1,3.170599937E0,5.716899872E0,-1.105049992E1
5.369997031E1,-7.665799618E0,-7.235799789E0,-2.482499838E0
5.371999375E1,-4.364099979E0,-8.080499649E0,3.169999838E0
5.374999531E1,1.746799946E0,-1.013000011E-1,1.890999973E-1
5.377999688E1,4.821199894E0,5.797999859E0,-6.411799908E0
5.381000000E1,2.189800024E0,1.702199936E0,-7.250999808E-1
5.384000156E1,2.585999966E-1,-4.093699932E0,8.783999681E-1
5.386997188E1,7.714999914E-1,-5.322499752E0,-2.550999820E-1
5.388999375E1,1.360099912E0,-3.846399784E0,-6.747999787E-1
5.391999688E1,1.377399921E0,5.315999985E-1,-1.625800014E0
5.394999844E1,4.108999968E-1,1.653999984E-1,-8.165000081E-1
5.398000156E1,2.698999941E-1,-1.870399952E0,2.884699821E0
5.400997188E1,2.052000016E-1,3.959999979E-2,8.411999941E-1
5.402999375E1,-1.632799983E0,8.172000051E-1,9.661999941E-1
5.405999531E1,8.901000023E-1,2.520999908E0,1.247299910E0
5.408999688E1,2.318399906E0,3.531499863E0,8.210999966E-1
5.412000000E1,6.117999554E-1,6.001699924E0,2.730799913E0
5.415000000E1,4.034100056E0,5.461299896E0,1.179199934E0
5.417997344E1,3.231599808E0,4.204999924E0,-2.731600046E0
5.419999531E1,9.742999673E-1,2.122799873E0,-3.629699945E0
5.422999688E1,-2.749899864E0,2.201999873E-1,-9.465000033E-1
5.425999844E1,-5.460999608E-1,1.640399933E0,1.274099946E0
5.429000000E1,-1.523999929E0,2.792199850E0,4.754999876E-1
5.431997188E1,3.610000014E-1,7.282999754E-1,-2.021399975E0
5.433999375E1,2.366699934E0,-9.296999574E-1,-2.998499870E0
5.436999531E1,2.821699858E0,-2.002300024E0,-3.532799959E0
5.439999844E1,1.233699918E0,-2.400899887E0,-3.920599937E0
5.442999844E1,-8.333999515E-1,-4.124199867E0,-2.989099979E0
5.446000156E1,-1.970999956E0,-5.158599854E0,-2.725199938E0
5.448997188E1,-6.132000089E-1,-5.479300022E0,-2.495599985E0
5.450999531E1,-1.759999990E-2,-5.550799847E0,-1.322700024E0
5.453999688E1,-5.633000135E-1,-4.468499660E0,1.499699950E0
5.456999844E1,4.028999805E-1,-2.624999881E-1,5.213699818E0
5.460000000E1,4.298999786E0,1.562889957E1,5.347199917E0
5.462997188E1,-3.425599813E0,9.421999931E0,-3.142499924E0
5.464999375E1,-3.772300005E0,-2.642899990E0,3.702999830E0
5.467999688E1,-1.208299994E0,7.791999578E-1,6.976399899E0
5.470999844E1,8.428500175E0,9.906000137E0,-7.084599972E0
5.474000000E1,1.306299925E0,-4.052499771E0,-9.858200073E0
5.477000156E1,-7.941199780E0,-9.773399353E0,-8.382999897E-1
5.479997188E1,-2.419199944E0,-2.998399973E0,3.336499929E0
5.481999375E1,1.638700008E0,4.062999725E0,-3.710999966E0
5.484999688E1,3.850299835E0,6.291499615E0,-5.642999649E0
5.487999844E1,2.127500057E0,-1.254499912E0,1.280999929E-1
5.491000156E1,7.070999742E-1,-5.585499763E0,1.221599936E0
5.493997188E1,8.812999725E-1,-4.428899765E0,-9.954999685E-1
5.495999375E1,1.313300014E0,-2.107499838E0,-2.462399960E0
5.498999531E1,-3.850999773E-1,2.258999825E0,-3.372699976E0
5.501999688E1,-1.271700025E0,-8.080999851E-1,2.786499977E0
5.505000000E1,1.435999990E0,6.899999827E-2,4.738399982E0
5.508000156E1,7.245999575E-1,-2.732999921E-1,1.040099978E0
5.510997344E1,-4.666999876E-1,2.397699833E0,2.527299881E0
5.512999531E1,1.980299950E0,2.556799889E0,2.254999876E0
5.515999688E1,2.616299868E0,3.610899925E0,1.421700001E0
5.519000000E1,2.195899963E0,5.794099808E0,1.068199992E0
5.522000000E1,4.165299892E0,4.939699650E0,-2.175099850E0
5.524997188E1,1.624799967E0,2.463199854E0,-4.882299900E0
5.526999375E1,-1.314000040E-1,1.669099927E0,-2.498899937E0
5.529999531E1,-3.296299934E0,5.094500065E0,3.745999932E-1
5.532999688E1,-3.862299919E0,3.954799891E0,-6.502999663E-1
5.536000000E1,-7.095999718E-1,8.068000078E-1,-8.934999704E-1
5.539000156E1,3.432499886E0,-2.764199972E0,-2.359999895E0
5.541997344E1,3.089200020E0,-3.135799885E0,-4.105599880E0
5.543999531E1,1.370399952E0,-3.023000002E0,-5.220599651E0
5.546999688E1,-9.999999776E-3,-4.530699730E0,-4.523499966E0
5.550000000E1,-1.449100018E0,-5.498399734E0,-2.218099833E0
5.553000156E1,-1.115199924E0,-5.483799934E0,-1.416099906E0
5.555997188E1,-4.817999899E-1,-4.866099834E0,-8.008999825E-1
5.557999375E1,-1.004299998E0,-4.314099789E0,4.506999850E-1
5.560999688E1,-4.916999936E-1,-1.791700006E0,3.878399849E0
5.563999844E1,4.184700012E0,1.118629932E1,6.643499851E0
5.567000000E1,-1.356400013E0,1.348269939E1,-1.676399946E0
5.570000156E1,-5.013000011E0,-2.598500013E0,4.555299759E0
5.572997344E1,-1.985799909E0,2.776000023E0,3.023699999E0
5.574999531E1,3.247099876E0,8.535799980E0,-4.328000069E0
5.577999688E1,3.632299900E0,-3.923299789E0,-7.839499950E0
5.581000000E1,-3.737699986E0,-7.818399906E0,-3.532299995E0
5.584000156E1,-4.339999706E-2,-2.021699905E0,2.208199978E0
5.586997188E1,2.486699820E0,5.147500038E0,-5.722099781E0
5.588999375E1,1.952499986E0,5.537199974E0,-4.920899868E0
5.591999688E1,2.156899929E0,-1.623999953E0,3.270999789E-1
5.594999844E1,7.584999800E-1,-4.763899803E0,4.132999778E-1
5.598000000E1,7.326999903E-1,-4.055099964E0,5.649999902E-2
5.601000156E1,5.888999701E-1,-1.013700008E0,-3.549000025E-1
5.603997188E1,-7.840000093E-2,1.613299966E0,-8.723999858E-1
5.605999531E1,1.270999908E-1,-1.242999956E-1,1.127200007E0
5.608999688E1,1.650299907E0,-1.457399964E0,3.646199942E0
5.612000000E1,2.938999832E-1,-2.478999943E-1,9.939000010E-1
5.615000156E1,-1.322600007E0,1.200899959E0,1.367999911E0
5.617997188E1,2.879699945E0,1.810699940E0,1.625499964E0
5.619999375E1,3.316699982E0,3.349999905E0,1.350999951E0
5.622999531E1,8.898999691E-1,4.747200012E0,2.200899839E0
5.625999844E1,3.001299858E0,5.821399689E0,8.579999804E-1
5.629000000E1,2.794299841E0,4.668099880E0,-3.434299946E0
5.631997188E1,1.090499997E0,1.785200000E0,-2.124300003E0
5.633999375E1,-1.277699947E0,1.481400013E0,-3.745999932E-1
5.636999531E1,-1.718899965E0,3.387199879E0,6.060999632E-1
5.639999688E1,-2.559900045E0,2.564599991E0,-6.724999547E-1
5.643002031E1,-6.150000095E-1,-7.099999785E-1,-1.564700007E0
5.646000156E1,2.288699865E0,-2.860800028E0,-2.392099857E0
5.648997188E1,1.887099981E0,-2.452100039E0,-3.654699802E0
5.650999375E1,1.332999945E0,-2.826400042E0,-4.276000023E0
5.653999688E1,1.106999964E-1,-4.875199795E0,-3.424599886E0
5.656999844E1,-1.019199967E0,-5.532199860E0,-2.248199940E0
5.660000000E1,-1.398999989E-1,-5.271599770E0,-2.195400000E0
5.662997031E1,-1.789999940E-2,-4.734799862E0,-6.683999896E-1
5.664999375E1,-6.744999886E-1,-3.378599882E0,1.128099918E0
5.667999531E1,-3.445000052E-1,2.184000015E-1,4.952799797E0
5.670999844E1,2.739300013E0,1.864879990E1,5.678400040E0
5.674000000E1,-3.590299845E0,6.900899887E0,-8.865000010E-1
5.677000156E1,-4.043699741E0,-5.258299828E0,4.367199898E0
5.679997188E1,-3.273999989E-1,5.914799690E0,1.236599922E0
5.681999531E1,6.554199696E0,1.169819927E1,-8.543899536E0
5.684999688E1,7.576999664E-1,-4.877599716E0,-8.760700226E0
5.687999844E1,-1.923799992E0,-9.044300079E0,8.329999447E-2
5.691000156E1,1.649500012E0,-2.418200016E0,1.938799977E0
5.693997188E1,2.416699886E0,8.929499626E0,-7.461400032E0
5.695999219E1,-1.250000000E0,7.072999954E0,-3.957899809E0
5.698999531E1,-2.599999867E-2,-2.657699823E0,1.652899981E0
5.701999688E1,2.303999960E-1,-5.448599815E0,7.281999588E-1
5.705000000E1,1.135699987E0,-4.405200005E0,-3.664000034E-1
5.708000156E1,6.484000087E-1,-7.971999645E-1,-9.422000051E-1
5.710997188E1,2.820000052E-1,1.652199984E0,-4.977999926E-1
5.712999375E1,5.055999756E-1,-7.609999925E-2,6.999999881E-1
5.715999688E1,1.903499961E0,-2.918599844E0,2.635699987E0
5.718999688E1,-1.035300016E0,-3.511999846E-1,-1.358299971E0
5.722000156E1,-1.551499963E0,2.920599937E0,1.561599970E0
5.724997188E1,3.166199923E0,2.892499924E0,2.507799864E0
5.726999375E1,1.934199929E0,4.157899857E0,1.411199927E0
5.729999531E1,8.755999804E-1,5.436899662E0,2.024600029E0
5.732999844E1,2.983799934E0,4.467099667E0,-1.386500001E0
5.736000000E1,1.003499985E0,2.319599867E0,-4.807799816E0
5.739000156E1,-4.975999892E-1,8.831999898E-1,-2.913999856E-1
5.741997188E1,-1.426399946E0,5.200599670E0,8.226000071E-1
5.744001562E1,-2.743299961E0,4.933599949E0,-2.590999901E-1
5.746999688E1,-1.330199957E0,2.376999855E0,1.403999925E-1
5.749999844E1,1.960099936E0,-7.810999751E-1,-2.405400038E0
5.753000156E1,2.937299967E0,-2.823400021E0,-3.582799911E0
5.755997031E1,1.199100018E0,-2.619299889E0,-4.468499660E0
5.757999375E1,3.666999936E-1,-3.652499914E0,-4.547699928E0
5.760999531E1,-9.442999959E-1,-5.159800053E0,-2.935699940E0
5.763999844E1,-1.321699977E0,-5.591700077E0,-2.090100050E0
5.767000000E1,5.460000038E-2,-5.143799782E0,-1.649500012E0
5.770000156E1,-7.880000025E-2,-3.784999847E0,7.493000031E-1
5.772997344E1,2.699999884E-2,-1.317600012E0,3.469299793E0
5.774999531E1,5.837000012E-1,3.454499960E0,6.893799782E0
5.777999688E1,4.882999957E-1,1.532049942E1,1.265599966E0
5.780999844E1,-2.660799980E0,2.421099901E0,6.869999766E-1
5.784000156E1,-2.580600023E0,-2.414599895E0,4.373399734E0
5.786997188E1,3.346299887E0,7.872399807E0,-2.530299902E0
5.788999375E1,5.365200043E0,4.228699684E0,-8.167200089E0
5.791999688E1,-3.778299809E0,-5.080999851E0,-6.623699665E0
5.794999844E1,-1.107200027E0,-5.514800072E0,2.744599819E0
5.798000000E1,2.583299875E0,3.423999846E-1,-9.689999819E-1
5.801000156E1,1.988699913E0,4.812299728E0,-4.755599976E0
