"Time (s)","Acceleration x (m/s^2)","Acceleration y (m/s^2)","Acceleration z (m/s^2)"
0.000000000E0,-7.469909191E-1,-7.852981687E-1,9.959878922E0
2.499687500E-2,-6.895300746E-1,-8.714894056E-1,9.777919769E0
4.999218700E-2,-6.033388376E-1,-9.193734527E-1,9.634267807E0
7.498906200E-2,-4.692635238E-1,-9.481038451E-1,9.701305389E0
9.998593700E-2,-4.213795066E-1,-9.481038451E-1,9.864110947E0
1.249828120E-1,-4.692635238E-1,-9.959878922E-1,9.854534149E0
1.450046870E-1,-3.734954596E-1,-9.959878922E-1,9.749189377E0
1.700000000E-1,-2.585737705E-1,-9.576807022E-1,9.758766174E0
1.949968750E-1,-9.576806799E-3,-8.140285611E-1,9.758766174E0
2.199937500E-1,-1.532289088E-1,-6.895300746E-1,9.797073364E0
2.449906250E-1,-3.256114423E-1,-7.852981687E-1,9.911994934E0
2.699859370E-1,-2.202665508E-1,-7.661445141E-1,1.004607010E1
2.949828120E-1,-1.628057212E-1,-6.320692301E-1,9.950302124E0
3.199796870E-1,-1.819593310E-1,-5.363011956E-1,9.739612579E0
3.400015620E-1,-2.202665508E-1,-3.926490843E-1,9.825803757E0
3.649984370E-1,-4.022258818E-1,-1.628057212E-1,9.892841339E0
3.899953120E-1,-5.171475410E-1,-1.149216816E-1,9.634267807E0
4.149906250E-1,-5.363011956E-1,-2.968810201E-1,9.500192642E0
4.399875000E-1,-4.596867263E-1,-6.512228847E-1,9.777919769E0
4.649843750E-1,-3.256114423E-1,-8.140285611E-1,1.003649330E1
4.899812500E-1,-3.926490843E-1,-8.427590132E-1,9.988609314E0
5.100031250E-1,-5.650315881E-1,-7.661445141E-1,9.931148529E0
5.350000000E-1,-8.523358107E-1,-6.703764796E-1,9.662998199E0
5.599968750E-1,-8.906430602E-1,-6.991068721E-1,9.634267807E0
5.849921870E-1,-7.182605267E-1,-8.236053586E-1,9.758766174E0
6.099890620E-1,-6.224924326E-1,-8.331822157E-1,9.548076630E0
6.349859370E-1,-6.416460276E-1,-9.864110947E-1,9.701305389E0
6.599812500E-1,-2.873041928E-1,-1.043871999E0,9.969455719E0
6.800046870E-1,-7.661445439E-2,-8.140285611E-1,9.902418137E0
7.050000000E-1,-3.830722570E-1,-4.309563041E-1,9.758766174E0
7.299968750E-1,-6.033388376E-1,-3.734954596E-1,9.749189377E0
7.549937500E-1,-6.607996821E-1,-5.267243981E-1,9.873687744E0
7.799890620E-1,-5.267243981E-1,-5.937620401E-1,9.892841339E0
8.049859370E-1,-3.160346150E-1,-5.171475410E-1,9.730035782E0
8.299828120E-1,-1.436520964E-1,-4.501099288E-1,9.816226959E0
8.549796870E-1,-2.394201756E-1,-5.363011956E-1,9.835380554E0
8.750015620E-1,-3.543418646E-1,-6.607996821E-1,9.806650162E0
8.999984370E-1,-4.309563041E-1,-6.033388376E-1,9.825803757E0
9.249953120E-1,-4.596867263E-1,-4.501099288E-1,9.739612579E0
9.499906250E-1,-4.884171486E-1,-3.830722570E-1,9.749189377E0
9.749875000E-1,-5.267243981E-1,-3.351882398E-1,9.835380554E0
9.999843750E-1,-7.182605267E-1,-3.734954596E-1,9.844957352E0
1.024981250E0,-5.841852427E-1,-5.458779931E-1,9.768342972E0
1.045004687E0,-2.106897533E-1,-6.991068721E-1,9.835380554E0
1.069998437E0,9.576806799E-3,-7.278373241E-1,9.825803757E0
1.094995312E0,-3.064578176E-1,-6.416460276E-1,9.739612579E0
1.119992187E0,-6.320692301E-1,-6.416460276E-1,9.787496567E0
1.144987500E0,-7.661445141E-1,-6.129156351E-1,9.940725327E0
1.169984375E0,-6.416460276E-1,-6.512228847E-1,9.959878922E0
1.194981250E0,-5.075707436E-1,-6.607996821E-1,9.864110947E0
1.215004687E0,-3.256114423E-1,-7.374141216E-1,9.777919769E0
1.240000000E0,-2.394201756E-1,-6.607996821E-1,9.595960617E0
1.264996875E0,-3.447650373E-1,-6.033388376E-1,9.672574997E0
1.289993750E0,-3.160346150E-1,-6.416460276E-1,9.892841339E0
1.314989062E0,-2.489969730E-1,-6.991068721E-1,9.873687744E0
1.339985937E0,-1.244984865E-1,-7.374141216E-1,9.720458984E0
1.364982812E0,-1.244984865E-1,-7.086837292E-1,9.739612579E0
1.385004687E0,-2.968810201E-1,-6.320692301E-1,9.806650162E0
1.410001562E0,-3.926490843E-1,-6.320692301E-1,9.806650162E0
1.434998437E0,-2.968810201E-1,-6.991068721E-1,9.854534149E0
1.459993750E0,-1.340752989E-1,-8.523358107E-1,9.892841339E0
1.484990625E0,-2.873042040E-2,-7.661445141E-1,9.873687744E0
1.509987500E0,0.000000000E0,-7.469909191E-1,9.768342972E0
1.534982812E0,-3.830722719E-2,-8.044517636E-1,9.844957352E0
1.559981250E0,-1.244984865E-1,-7.757213712E-1,9.911994934E0
1.580001562E0,-2.873041928E-1,-7.182605267E-1,9.931148529E0
1.604998437E0,-3.926490843E-1,-6.991068721E-1,9.835380554E0
1.629995312E0,-3.830722570E-1,-7.374141216E-1,9.768342972E0
1.654992187E0,-4.118026793E-1,-6.991068721E-1,9.777919769E0
1.679987500E0,-3.734954596E-1,-6.703764796E-1,9.777919769E0
1.704984375E0,-2.777273953E-1,-6.416460276E-1,9.835380554E0
1.729981250E0,-2.394201756E-1,-6.703764796E-1,9.825803757E0
1.750003125E0,-2.011129409E-1,-6.799532771E-1,9.873687744E0
1.775000000E0,-1.244984865E-1,-6.799532771E-1,9.873687744E0
1.799996875E0,-1.628057212E-1,-6.512228847E-1,9.777919769E0
1.824992187E0,-2.298433632E-1,-7.086837292E-1,9.730035782E0
1.849989062E0,-2.968810201E-1,-7.374141216E-1,9.835380554E0
1.874985937E0,-3.543418646E-1,-7.278373241E-1,9.854534149E0
1.899981250E0,-3.256114423E-1,-7.948749661E-1,9.835380554E0
1.920004687E0,-2.777273953E-1,-8.140285611E-1,9.835380554E0
1.945001562E0,-2.873041928E-1,-7.374141216E-1,9.777919769E0
1.969996875E0,-2.681505978E-1,-7.661445141E-1,9.816226959E0
1.994993750E0,-2.394201756E-1,-7.182605267E-1,9.854534149E0
2.019990625E0,-2.681505978E-1,-6.799532771E-1,9.844957352E0
2.045009375E0,-3.351882398E-1,-7.278373241E-1,9.787496567E0
2.069982812E0,-4.596867263E-1,-7.661445141E-1,9.787496567E0
2.094979687E0,-5.267243981E-1,-8.331822157E-1,9.883264542E0
2.115001562E0,-4.022258818E-1,-8.331822157E-1,9.883264542E0
2.139998437E0,-2.489969730E-1,-7.757213712E-1,9.835380554E0
2.164995312E0,-4.788403213E-2,-7.948749661E-1,9.777919769E0
2.189990625E0,1.915361360E-2,-8.331822157E-1,9.768342972E0
2.214987500E0,-3.830722719E-2,-7.278373241E-1,9.806650162E0
2.239984375E0,-2.394201756E-1,-6.033388376E-1,9.835380554E0
2.264981250E0,-3.830722570E-1,-5.841852427E-1,9.844957352E0
2.285003125E0,-2.873041928E-1,-6.703764796E-1,9.854534149E0
2.310000000E0,-2.873042040E-2,-8.236053586E-1,9.883264542E0
2.334996875E0,-4.788403213E-2,-8.236053586E-1,9.835380554E0
2.359992187E0,-1.436520964E-1,-7.374141216E-1,9.749189377E0
2.384989062E0,-1.628057212E-1,-7.948749661E-1,9.864110947E0
2.409984375E0,-2.489969730E-1,-8.427590132E-1,9.854534149E0
2.434982812E0,-3.160346150E-1,-8.427590132E-1,9.854534149E0
2.455004687E0,-3.160346150E-1,-7.852981687E-1,9.787496567E0
2.480000000E0,-3.160346150E-1,-8.044517636E-1,9.816226959E0
2.504996875E0,-2.968810201E-1,-7.661445141E-1,9.902418137E0
2.529993750E0,-3.447650373E-1,-7.182605267E-1,9.825803757E0
2.554989062E0,-3.639186621E-1,-7.565677166E-1,9.768342972E0
2.579987500E0,-3.160346150E-1,-7.948749661E-1,9.835380554E0
2.604982812E0,-2.777273953E-1,-7.757213712E-1,9.854534149E0
2.629979687E0,-3.064578176E-1,-7.374141216E-1,9.816226959E0
2.650001562E0,-2.873041928E-1,-7.565677166E-1,9.806650162E0
2.674998437E0,-2.394201756E-1,-7.565677166E-1,9.816226959E0
2.699993750E0,-2.202665508E-1,-7.469909191E-1,9.835380554E0
2.724990625E0,-1.915361285E-1,-7.278373241E-1,9.835380554E0
2.749987500E0,-2.011129409E-1,-7.086837292E-1,9.873687744E0
2.774984375E0,-1.340752989E-1,-7.182605267E-1,9.854534149E0
2.799981250E0,-1.340752989E-1,-7.469909191E-1,9.844957352E0
2.820003125E0,-1.628057212E-1,-7.278373241E-1,9.835380554E0
2.845000000E0,-1.628057212E-1,-7.757213712E-1,9.844957352E0
2.869995312E0,-1.340752989E-1,-7.948749661E-1,9.825803757E0
2.894992187E0,-1.149216816E-1,-7.852981687E-1,9.854534149E0
2.919989062E0,-1.340752989E-1,-7.661445141E-1,9.854534149E0
2.944984375E0,-1.532289088E-1,-7.852981687E-1,9.816226959E0
2.969981250E0,-1.532289088E-1,-8.236053586E-1,9.797073364E0
2.990003125E0,-1.723825186E-1,-7.852981687E-1,9.806650162E0
3.015000000E0,-2.394201756E-1,-7.469909191E-1,9.835380554E0
3.040021875E0,-2.873041928E-1,-7.565677166E-1,9.816226959E0
3.064993750E0,-2.585737705E-1,-7.565677166E-1,9.835380554E0
3.089990625E0,-2.394201756E-1,-7.852981687E-1,9.806650162E0
3.114985937E0,-2.298433632E-1,-7.374141216E-1,9.777919769E0
3.139982812E0,-2.298433632E-1,-7.278373241E-1,9.797073364E0
3.164978125E0,-2.489969730E-1,-7.948749661E-1,9.816226959E0
3.185001562E0,-2.585737705E-1,-7.948749661E-1,9.816226959E0
3.209998437E0,-2.298433632E-1,-7.469909191E-1,9.816226959E0
3.234993750E0,-2.394201756E-1,-7.469909191E-1,9.787496567E0
3.259990625E0,-2.106897533E-1,-7.948749661E-1,9.768342972E0
3.284987500E0,-2.106897533E-1,-8.044517636E-1,9.816226959E0
3.309984375E0,-2.011129409E-1,-7.948749661E-1,9.835380554E0
3.334979687E0,-2.202665508E-1,-7.374141216E-1,9.797073364E0
3.355003125E0,-2.298433632E-1,-7.565677166E-1,9.777919769E0
3.380000000E0,-2.106897533E-1,-7.757213712E-1,9.787496567E0
3.404995312E0,-2.202665508E-1,-7.565677166E-1,9.787496567E0
3.429992187E0,-2.106897533E-1,-7.565677166E-1,9.806650162E0
3.454987500E0,-1.819593310E-1,-7.757213712E-1,9.787496567E0
3.479985937E0,-1.723825186E-1,-7.757213712E-1,9.797073364E0
3.504981250E0,-2.106897533E-1,-7.852981687E-1,9.806650162E0
3.525003125E0,-1.915361285E-1,-8.044517636E-1,9.777919769E0
3.550000000E0,-2.394201756E-1,-7.757213712E-1,9.835380554E0
3.574996875E0,-2.298433632E-1,-7.757213712E-1,9.816226959E0
3.599993750E0,-2.106897533E-1,-7.278373241E-1,9.797073364E0
3.624989062E0,-1.819593310E-1,-7.374141216E-1,9.768342972E0
3.649985937E0,-2.011129409E-1,-7.565677166E-1,9.806650162E0
3.674982812E0,-2.011129409E-1,-7.661445141E-1,9.797073364E0
3.695004687E0,-2.011129409E-1,-7.469909191E-1,9.797073364E0
3.720001562E0,-1.723825186E-1,-7.565677166E-1,9.787496567E0
3.744996875E0,-1.915361285E-1,-7.852981687E-1,9.806650162E0
3.769995312E0,-2.106897533E-1,-7.757213712E-1,9.806650162E0
3.794990625E0,-2.202665508E-1,-8.044517636E-1,9.768342972E0
3.819995312E0,-2.106897533E-1,-8.140285611E-1,9.749189377E0
3.844982812E0,-1.915361285E-1,-7.948749661E-1,9.797073364E0
3.869979687E0,-2.202665508E-1,-7.374141216E-1,9.787496567E0
3.890001562E0,-2.202665508E-1,-7.757213712E-1,9.768342972E0
3.914998437E0,-2.298433632E-1,-7.757213712E-1,9.835380554E0
3.940004687E0,-2.106897533E-1,-7.182605267E-1,9.825803757E0
3.964992187E0,-2.489969730E-1,-6.991068721E-1,9.758766174E0
3.989987500E0,-2.202665508E-1,-7.661445141E-1,9.758766174E0
4.014984375E0,-2.011129409E-1,-7.757213712E-1,9.816226959E0
4.039981250E0,-2.011129409E-1,-7.948749661E-1,9.797073364E0
4.060003125E0,-1.915361285E-1,-7.948749661E-1,9.777919769E0
4.085000000E0,-1.723825186E-1,-7.852981687E-1,9.768342972E0
4.109996875E0,-1.819593310E-1,-7.852981687E-1,9.806650162E0
4.134993750E0,-2.106897533E-1,-7.661445141E-1,9.787496567E0
4.159989062E0,-2.489969730E-1,-7.757213712E-1,9.777919769E0
4.184985937E0,-2.585737705E-1,-7.661445141E-1,9.787496567E0
4.209982812E0,-2.298433632E-1,-7.374141216E-1,9.816226959E0
4.230004687E0,-2.298433632E-1,-7.469909191E-1,9.787496567E0
4.255000000E0,-1.819593310E-1,-7.469909191E-1,9.787496567E0
4.279996875E0,-1.915361285E-1,-7.565677166E-1,9.797073364E0
4.300003125E0,-2.011129409E-1,-7.852981687E-1,9.806650162E0
4.324984375E0,-1.915361285E-1,-7.852981687E-1,9.777919769E0
4.345018750E0,-1.723825186E-1,-7.757213712E-1,9.797073364E0
4.370004687E0,-2.011129409E-1,-7.757213712E-1,9.797073364E0
4.395000000E0,-1.723825186E-1,-7.565677166E-1,9.787496567E0
4.419998437E0,-1.819593310E-1,-7.374141216E-1,9.797073364E0
4.444992187E0,-2.298433632E-1,-7.565677166E-1,9.787496567E0
4.469989062E0,-2.202665508E-1,-7.757213712E-1,9.777919769E0
4.494985937E0,-2.202665508E-1,-7.757213712E-1,9.797073364E0
4.519982812E0,-2.202665508E-1,-7.852981687E-1,9.758766174E0
4.540004687E0,-2.106897533E-1,-8.044517636E-1,9.777919769E0
4.565001562E0,-2.394201756E-1,-8.044517636E-1,9.768342972E0
4.589996875E0,-2.202665508E-1,-8.140285611E-1,9.787496567E0
4.614993750E0,-2.106897533E-1,-7.661445141E-1,9.806650162E0
4.639990625E0,-1.723825186E-1,-7.469909191E-1,9.768342972E0
4.660003125E0,-1.723825186E-1,-7.565677166E-1,9.797073364E0
4.680003125E0,-2.298433632E-1,-7.565677166E-1,9.787496567E0
4.705000000E0,-1.915361285E-1,-7.469909191E-1,9.816226959E0
4.729996875E0,-1.915361285E-1,-7.182605267E-1,9.806650162E0
4.754992187E0,-2.011129409E-1,-7.661445141E-1,9.787496567E0
4.779998437E0,-2.202665508E-1,-7.852981687E-1,9.768342972E0
4.804985937E0,-2.011129409E-1,-7.374141216E-1,9.758766174E0
4.829982812E0,-2.106897533E-1,-7.852981687E-1,9.777919769E0
4.850004687E0,-2.106897533E-1,-8.044517636E-1,9.787496567E0
4.875001562E0,-2.106897533E-1,-7.948749661E-1,9.806650162E0
4.900015625E0,-2.106897533E-1,-7.661445141E-1,9.777919769E0
4.924993750E0,-2.011129409E-1,-7.852981687E-1,9.749189377E0
4.949992187E0,-1.723825186E-1,-7.757213712E-1,9.816226959E0
4.974987500E0,-1.819593310E-1,-7.374141216E-1,9.787496567E0
4.999984375E0,-1.723825186E-1,-7.469909191E-1,9.787496567E0
5.024979687E0,-1.723825186E-1,-7.661445141E-1,9.768342972E0
5.045001562E0,-1.628057212E-1,-7.757213712E-1,9.787496567E0
5.069998437E0,-1.819593310E-1,-7.948749661E-1,9.787496567E0
5.094995312E0,-2.202665508E-1,-7.565677166E-1,9.797073364E0
5.119992187E0,-2.011129409E-1,-7.565677166E-1,9.768342972E0
5.144987500E0,-2.298433632E-1,-7.374141216E-1,9.777919769E0
5.169984375E0,-1.819593310E-1,-7.661445141E-1,9.768342972E0
5.194981250E0,-1.819593310E-1,-7.948749661E-1,9.749189377E0
5.215003125E0,-1.723825186E-1,-7.852981687E-1,9.797073364E0
5.240000000E0,-1.915361285E-1,-7.757213712E-1,9.787496567E0
5.264996875E0,-2.011129409E-1,-7.852981687E-1,9.768342972E0
5.289993750E0,-1.915361285E-1,-7.757213712E-1,9.787496567E0
5.314989062E0,-2.106897533E-1,-7.757213712E-1,9.787496567E0
5.339985937E0,-1.915361285E-1,-7.661445141E-1,9.787496567E0
5.364981250E0,-2.011129409E-1,-7.374141216E-1,9.768342972E0
5.385004687E0,-2.106897533E-1,-7.469909191E-1,9.806650162E0
5.410001562E0,-2.202665508E-1,-7.565677166E-1,9.777919769E0
5.434996875E0,-2.298433632E-1,-7.661445141E-1,9.777919769E0
5.459993750E0,-1.819593310E-1,-7.374141216E-1,9.806650162E0
5.484989062E0,-1.723825186E-1,-7.565677166E-1,9.749189377E0
5.509987500E0,-2.011129409E-1,-7.948749661E-1,9.806650162E0
5.534984375E0,-1.532289088E-1,-7.661445141E-1,9.806650162E0
5.559979687E0,-1.628057212E-1,-7.374141216E-1,9.806650162E0
5.580003125E0,-1.436520964E-1,-7.661445141E-1,9.797073364E0
5.604998437E0,-1.723825186E-1,-7.948749661E-1,9.777919769E0
5.629995312E0,-1.723825186E-1,-7.948749661E-1,9.787496567E0
5.654990625E0,-1.819593310E-1,-7.757213712E-1,9.787496567E0
5.679987500E0,-1.819593310E-1,-7.565677166E-1,9.787496567E0
5.704984375E0,-1.915361285E-1,-7.565677166E-1,9.797073364E0
5.729981250E0,-2.011129409E-1,-7.374141216E-1,9.797073364E0
5.750003125E0,-1.723825186E-1,-7.565677166E-1,9.768342972E0
5.774998437E0,-1.436520964E-1,-7.757213712E-1,9.768342972E0
5.799996875E0,-1.532289088E-1,-7.661445141E-1,9.816226959E0
5.824992187E0,-2.106897533E-1,-7.182605267E-1,9.787496567E0
5.849989062E0,-2.489969730E-1,-7.469909191E-1,9.768342972E0
5.874984375E0,-2.585737705E-1,-7.469909191E-1,9.787496567E0
5.899982812E0,-2.394201756E-1,-7.948749661E-1,9.768342972E0
5.920004687E0,-2.394201756E-1,-7.852981687E-1,9.806650162E0
5.945000000E0,-1.819593310E-1,-8.044517636E-1,9.816226959E0
5.969996875E0,-1.340752989E-1,-7.757213712E-1,9.777919769E0
5.990032812E0,-8.619125932E-2,-7.661445141E-1,9.739612579E0
6.014984375E0,-1.053448766E-1,-7.852981687E-1,9.749189377E0
6.039981250E0,-2.011129409E-1,-8.427590132E-1,9.797073364E0
6.060003125E0,-2.585737705E-1,-8.140285611E-1,9.854534149E0
6.085000000E0,-2.777273953E-1,-7.661445141E-1,9.768342972E0
6.109996875E0,-2.394201756E-1,-7.948749661E-1,9.749189377E0
6.134992187E0,-2.011129409E-1,-8.427590132E-1,9.854534149E0
6.159989062E0,-1.532289088E-1,-8.140285611E-1,9.864110947E0
6.184984375E0,-1.149216816E-1,-8.044517636E-1,9.902418137E0
6.209982812E0,-1.436520964E-1,-7.852981687E-1,9.691728592E0
6.230004687E0,-1.723825186E-1,-7.278373241E-1,9.758766174E0
6.255000000E0,-2.011129409E-1,-7.661445141E-1,9.528923035E0
6.279998437E0,-4.788403213E-2,-7.948749661E-1,9.672574997E0
6.304993750E0,-9.576806426E-2,-7.374141216E-1,9.854534149E0
6.329990625E0,-3.256114423E-1,-6.416460276E-1,9.730035782E0
6.354985937E0,-4.309563041E-1,-5.650315881E-1,9.806650162E0
6.379982812E0,-5.363011956E-1,-6.033388376E-1,9.768342972E0
6.404979687E0,-4.884171486E-1,-6.607996821E-1,9.873687744E0
6.425001562E0,-4.022258818E-1,-6.320692301E-1,9.864110947E0
6.449998437E0,-3.830722570E-1,-6.703764796E-1,9.768342972E0
6.474993750E0,-3.543418646E-1,-6.799532771E-1,9.739612579E0
6.499992187E0,-3.447650373E-1,-7.374141216E-1,9.854534149E0
6.524987500E0,-3.160346150E-1,-7.374141216E-1,9.720458984E0
6.549984375E0,-2.585737705E-1,-8.044517636E-1,9.777919769E0
6.574981250E0,-2.777273953E-1,-8.523358107E-1,9.825803757E0
6.595003125E0,-2.585737705E-1,-8.714894056E-1,9.873687744E0
6.620000000E0,-2.298433632E-1,-7.469909191E-1,9.720458984E0
6.644995312E0,-1.340752989E-1,-7.278373241E-1,9.768342972E0
6.669992187E0,-2.011129409E-1,-7.086837292E-1,9.806650162E0
6.694989062E0,-1.340752989E-1,-7.182605267E-1,9.643844604E0
6.719985937E0,-1.915361285E-1,-7.086837292E-1,9.825803757E0
6.744981250E0,-3.543418646E-1,-6.224924326E-1,9.902418137E0
6.765003125E0,-3.447650373E-1,-5.841852427E-1,9.672574997E0
6.790000000E0,-2.011129409E-1,-6.224924326E-1,9.777919769E0
6.814996875E0,-2.777273953E-1,-6.320692301E-1,9.825803757E0
6.839993750E0,-3.926490843E-1,-6.799532771E-1,9.777919769E0
6.864998437E0,-3.926490843E-1,-6.991068721E-1,9.634267807E0
6.889987500E0,-6.703764945E-2,-7.278373241E-1,9.634267807E0
6.914982812E0,-2.202665508E-1,-7.469909191E-1,9.730035782E0
6.935004687E0,-4.213795066E-1,-7.278373241E-1,9.816226959E0
6.960001562E0,-3.064578176E-1,-5.841852427E-1,9.730035782E0
6.984998437E0,-3.447650373E-1,-6.129156351E-1,9.777919769E0
7.009993750E0,-4.884171486E-1,-6.703764796E-1,9.825803757E0
7.034990625E0,-4.022258818E-1,-6.703764796E-1,9.768342972E0
7.059985937E0,-3.543418646E-1,-6.799532771E-1,9.682151794E0
7.084982812E0,-1.149216816E-1,-7.661445141E-1,9.634267807E0
7.109981250E0,-7.661445439E-2,-8.523358107E-1,9.701305389E0
7.130003125E0,-2.681505978E-1,-8.427590132E-1,9.758766174E0
7.154998437E0,-3.160346150E-1,-7.469909191E-1,9.825803757E0
7.180017187E0,-3.351882398E-1,-7.469909191E-1,9.816226959E0
7.204992187E0,-4.979939461E-1,-7.278373241E-1,9.940725327E0
7.229987500E0,-4.596867263E-1,-6.895300746E-1,1.004607010E1
7.254984375E0,-3.351882398E-1,-6.607996821E-1,9.835380554E0
7.279981250E0,-3.447650373E-1,-6.607996821E-1,9.739612579E0
7.300004687E0,-3.543418646E-1,-6.416460276E-1,9.691728592E0
7.325000000E0,-3.160346150E-1,-6.320692301E-1,9.787496567E0
7.349996875E0,-4.979939461E-1,-6.224924326E-1,9.911994934E0
7.374992187E0,-5.171475410E-1,-6.320692301E-1,9.777919769E0
7.399989062E0,-4.118026793E-1,-7.182605267E-1,9.768342972E0
7.420006250E0,-3.734954596E-1,-6.991068721E-1,9.768342972E0
7.444976562E0,-3.734954596E-1,-6.703764796E-1,9.749189377E0
7.464998437E0,-3.351882398E-1,-6.799532771E-1,9.768342972E0
7.489995312E0,-2.585737705E-1,-7.469909191E-1,9.787496567E0
7.514992187E0,-3.926490843E-1,-6.703764796E-1,9.816226959E0
7.540015625E0,-5.363011956E-1,-6.320692301E-1,9.816226959E0
7.564984375E0,-6.512228847E-1,-6.607996821E-1,9.797073364E0
7.589981250E0,-6.512228847E-1,-6.895300746E-1,9.768342972E0
7.610004687E0,-5.937620401E-1,-7.182605267E-1,9.768342972E0
7.635000000E0,-4.692635238E-1,-7.278373241E-1,9.835380554E0
7.660034375E0,-3.734954596E-1,-7.374141216E-1,9.797073364E0
7.684993750E0,-3.256114423E-1,-7.661445141E-1,9.816226959E0
7.709989062E0,-2.394201756E-1,-8.523358107E-1,9.797073364E0
7.734985937E0,-1.628057212E-1,-8.427590132E-1,9.787496567E0
7.759982812E0,-1.436520964E-1,-8.427590132E-1,9.758766174E0
7.780003125E0,-1.819593310E-1,-8.044517636E-1,9.768342972E0
7.805001562E0,-2.585737705E-1,-7.852981687E-1,9.816226959E0
7.829998437E0,-3.064578176E-1,-8.140285611E-1,9.787496567E0
7.854993750E0,-2.489969730E-1,-8.331822157E-1,9.777919769E0
7.879990625E0,-2.011129409E-1,-8.714894056E-1,9.758766174E0
7.904985937E0,-1.819593310E-1,-8.714894056E-1,9.758766174E0
7.929984375E0,-2.202665508E-1,-9.481038451E-1,9.787496567E0
7.954979687E0,-1.915361285E-1,-9.193734527E-1,9.777919769E0
7.975001562E0,-2.394201756E-1,-8.427590132E-1,9.797073364E0
8.000000000E0,-2.873041928E-1,-7.852981687E-1,9.797073364E0
8.024995312E0,-3.064578176E-1,-7.948749661E-1,9.787496567E0
8.049992187E0,-2.585737705E-1,-7.565677166E-1,9.787496567E0
8.074987500E0,-2.394201756E-1,-6.895300746E-1,9.787496567E0
8.099984375E0,-2.298433632E-1,-7.086837292E-1,9.749189377E0
8.124981250E0,-1.915361285E-1,-7.469909191E-1,9.787496567E0
8.145003125E0,-2.202665508E-1,-7.757213712E-1,9.806650162E0
8.170001562E0,-2.489969730E-1,-7.852981687E-1,9.758766174E0
8.194995312E0,-2.489969730E-1,-7.852981687E-1,9.749189377E0
8.219993750E0,-2.585737705E-1,-8.523358107E-1,9.777919769E0
8.239996875E0,-2.585737705E-1,-8.714894056E-1,9.797073364E0
8.260015625E0,-2.968810201E-1,-8.427590132E-1,9.787496567E0
8.285001562E0,-2.873041928E-1,-8.331822157E-1,9.768342972E0
8.310000000E0,-2.968810201E-1,-8.619126081E-1,9.758766174E0
8.334995312E0,-2.585737705E-1,-8.523358107E-1,9.758766174E0
8.359992187E0,-2.394201756E-1,-8.140285611E-1,9.768342972E0
8.384987500E0,-2.394201756E-1,-8.331822157E-1,9.749189377E0
8.409984375E0,-2.873041928E-1,-8.523358107E-1,9.749189377E0
8.434981250E0,-2.968810201E-1,-8.140285611E-1,9.806650162E0
8.455003125E0,-2.968810201E-1,-8.140285611E-1,9.787496567E0
8.480000000E0,-2.777273953E-1,-7.757213712E-1,9.787496567E0
8.504995312E0,-2.489969730E-1,-7.757213712E-1,9.768342972E0
8.529993750E0,-2.106897533E-1,-7.565677166E-1,9.787496567E0
8.554989062E0,-1.723825186E-1,-7.661445141E-1,9.777919769E0
8.579985937E0,-1.532289088E-1,-7.661445141E-1,9.777919769E0
8.604981250E0,-1.149216816E-1,-8.044517636E-1,9.787496567E0
8.625004687E0,-1.532289088E-1,-7.948749661E-1,9.768342972E0
8.650001562E0,-1.628057212E-1,-8.140285611E-1,9.777919769E0
8.674996875E0,-2.394201756E-1,-8.140285611E-1,9.768342972E0
8.699993750E0,-2.585737705E-1,-8.236053586E-1,9.777919769E0
8.724990625E0,-3.160346150E-1,-8.523358107E-1,9.797073364E0
8.749987500E0,-3.256114423E-1,-8.044517636E-1,9.777919769E0
8.774982812E0,-2.777273953E-1,-8.236053586E-1,9.768342972E0
8.799979687E0,-2.681505978E-1,-7.948749661E-1,9.758766174E0
8.820003125E0,-2.585737705E-1,-8.236053586E-1,9.758766174E0
8.844998437E0,-2.777273953E-1,-8.523358107E-1,9.768342972E0
8.869995312E0,-2.777273953E-1,-7.948749661E-1,9.806650162E0
8.894992187E0,-2.489969730E-1,-7.661445141E-1,9.768342972E0
8.919987500E0,-2.873041928E-1,-7.948749661E-1,9.777919769E0
8.944984375E0,-2.585737705E-1,-7.948749661E-1,9.758766174E0
8.969981250E0,-2.585737705E-1,-7.948749661E-1,9.777919769E0
8.990003125E0,-2.394201756E-1,-7.948749661E-1,9.787496567E0
9.015000000E0,-2.394201756E-1,-7.757213712E-1,9.787496567E0
9.039996875E0,-2.202665508E-1,-8.044517636E-1,9.768342972E0
9.064992187E0,-2.202665508E-1,-7.852981687E-1,9.797073364E0
9.089989062E0,-2.298433632E-1,-7.948749661E-1,9.768342972E0
9.114984375E0,-2.394201756E-1,-8.331822157E-1,9.777919769E0
9.139982812E0,-2.394201756E-1,-8.140285611E-1,9.777919769E0
9.160004687E0,-2.106897533E-1,-8.236053586E-1,9.777919769E0
9.185000000E0,-2.106897533E-1,-8.044517636E-1,9.787496567E0
9.209996875E0,-2.106897533E-1,-8.427590132E-1,9.777919769E0
9.234993750E0,-2.298433632E-1,-8.140285611E-1,9.768342972E0
9.259990625E0,-2.394201756E-1,-8.236053586E-1,9.787496567E0
9.284984375E0,-2.298433632E-1,-8.140285611E-1,9.797073364E0
9.309982812E0,-2.202665508E-1,-8.044517636E-1,9.777919769E0
9.334979687E0,-2.489969730E-1,-7.948749661E-1,9.787496567E0
9.355001562E0,-2.489969730E-1,-7.852981687E-1,9.797073364E0
9.379998437E0,-2.585737705E-1,-7.948749661E-1,9.758766174E0
9.404993750E0,-2.873041928E-1,-7.852981687E-1,9.777919769E0
9.429990625E0,-3.064578176E-1,-8.044517636E-1,9.777919769E0
9.454987500E0,-2.968810201E-1,-7.948749661E-1,9.777919769E0
9.479984375E0,-2.873041928E-1,-8.236053586E-1,9.777919769E0
9.504979687E0,-2.681505978E-1,-7.948749661E-1,9.787496567E0
9.525003125E0,-2.585737705E-1,-8.140285611E-1,9.787496567E0
9.550000000E0,-2.489969730E-1,-8.236053586E-1,9.768342972E0
9.574995312E0,-2.489969730E-1,-8.236053586E-1,9.777919769E0
9.599992187E0,-2.585737705E-1,-8.140285611E-1,9.797073364E0
9.624989062E0,-2.011129409E-1,-7.757213712E-1,9.777919769E0
9.649985937E0,-2.681505978E-1,-8.331822157E-1,9.758766174E0
9.674981250E0,-2.681505978E-1,-8.427590132E-1,9.806650162E0
9.695003125E0,-2.394201756E-1,-8.044517636E-1,9.835380554E0
9.720001562E0,-2.298433632E-1,-7.661445141E-1,9.768342972E0
9.744996875E0,-2.394201756E-1,-8.140285611E-1,9.758766174E0
9.769993750E0,-2.298433632E-1,-8.236053586E-1,9.777919769E0
9.794989062E0,-2.298433632E-1,-8.044517636E-1,9.797073364E0
9.819993750E0,-2.298433632E-1,-7.948749661E-1,9.758766174E0
9.844982812E0,-2.394201756E-1,-8.331822157E-1,9.787496567E0
9.865004687E0,-2.394201756E-1,-8.427590132E-1,9.797073364E0
9.890001562E0,-2.202665508E-1,-7.757213712E-1,9.768342972E0
9.914998437E0,-2.298433632E-1,-8.140285611E-1,9.739612579E0
9.940004687E0,-2.585737705E-1,-7.948749661E-1,9.787496567E0
9.964990625E0,-2.394201756E-1,-7.852981687E-1,9.797073364E0
9.989987500E0,-2.777273953E-1,-7.852981687E-1,9.749189377E0
1.001498281E1,-2.681505978E-1,-8.140285611E-1,9.768342972E0
1.003998125E1,-2.681505978E-1,-8.236053586E-1,9.758766174E0
1.006000313E1,-2.873041928E-1,-8.236053586E-1,9.777919769E0
1.008499844E1,-2.585737705E-1,-8.331822157E-1,9.797073364E0
1.010999531E1,-2.489969730E-1,-8.140285611E-1,9.768342972E0
1.013499219E1,-2.489969730E-1,-8.044517636E-1,9.768342972E0
1.015998906E1,-2.585737705E-1,-8.044517636E-1,9.797073364E0
1.018498438E1,-2.585737705E-1,-8.140285611E-1,9.768342972E0
1.020998125E1,-2.585737705E-1,-8.236053586E-1,9.777919769E0
1.023000469E1,-2.873041928E-1,-8.044517636E-1,9.768342972E0
1.025500000E1,-2.585737705E-1,-8.044517636E-1,9.777919769E0
1.027999688E1,-2.585737705E-1,-8.140285611E-1,9.768342972E0
1.030003125E1,-2.394201756E-1,-8.044517636E-1,9.797073364E0
1.032498438E1,-2.585737705E-1,-8.140285611E-1,9.768342972E0
1.034998125E1,-2.585737705E-1,-8.140285611E-1,9.806650162E0
1.037000312E1,-2.681505978E-1,-8.140285611E-1,9.787496567E0
1.039499844E1,-2.489969730E-1,-8.236053586E-1,9.768342972E0
1.041999688E1,-2.489969730E-1,-7.948749661E-1,9.797073364E0
1.044499219E1,-2.298433632E-1,-8.044517636E-1,9.777919769E0
1.046998906E1,-2.968810201E-1,-8.236053586E-1,9.739612579E0
1.049498438E1,-2.873041928E-1,-8.331822157E-1,9.806650162E0
1.051998125E1,-2.394201756E-1,-7.948749661E-1,9.816226959E0
1.054002813E1,-2.298433632E-1,-7.757213712E-1,9.797073364E0
1.056500000E1,-2.394201756E-1,-8.140285611E-1,9.739612579E0
1.058999688E1,-2.298433632E-1,-8.427590132E-1,9.768342972E0
1.061499219E1,-2.202665508E-1,-8.236053586E-1,9.787496567E0
1.063998906E1,-2.394201756E-1,-8.044517636E-1,9.768342972E0
1.066498594E1,-2.394201756E-1,-8.236053586E-1,9.787496567E0
1.068998281E1,-2.489969730E-1,-8.140285611E-1,9.787496567E0
1.071000469E1,-2.394201756E-1,-7.661445141E-1,9.787496567E0
1.073500156E1,-2.585737705E-1,-8.044517636E-1,9.749189377E0
1.075999844E1,-2.585737705E-1,-8.236053586E-1,9.816226959E0
1.078499375E1,-2.681505978E-1,-7.852981687E-1,9.787496567E0
1.080999063E1,-2.681505978E-1,-7.852981687E-1,9.758766174E0
1.083498750E1,-2.298433632E-1,-8.140285611E-1,9.787496567E0
1.085998281E1,-2.489969730E-1,-8.236053586E-1,9.787496567E0
1.088497969E1,-2.681505978E-1,-8.044517636E-1,9.787496567E0
1.090500156E1,-2.873041928E-1,-7.948749661E-1,9.749189377E0
1.092999844E1,-2.585737705E-1,-8.044517636E-1,9.768342972E0
1.095499531E1,-2.394201756E-1,-8.236053586E-1,9.787496567E0
1.097999219E1,-2.585737705E-1,-8.427590132E-1,9.768342972E0
1.100498750E1,-2.585737705E-1,-8.140285611E-1,9.768342972E0
1.102998438E1,-2.777273953E-1,-8.044517636E-1,9.777919769E0
1.105498125E1,-2.777273953E-1,-7.757213712E-1,9.787496567E0
1.107500312E1,-2.681505978E-1,-7.948749661E-1,9.758766174E0
1.110000000E1,-2.394201756E-1,-7.948749661E-1,9.768342972E0
1.112499688E1,-2.298433632E-1,-8.236053586E-1,9.797073364E0
1.114999375E1,-2.202665508E-1,-8.236053586E-1,9.816226959E0
1.117498906E1,-2.106897533E-1,-8.044517636E-1,9.797073364E0
1.119998594E1,-2.106897533E-1,-8.236053586E-1,9.758766174E0
1.122498125E1,-2.202665508E-1,-8.331822157E-1,9.749189377E0
1.124500469E1,-2.298433632E-1,-8.331822157E-1,9.787496567E0
1.127000156E1,-2.489969730E-1,-8.140285611E-1,9.806650162E0
1.129499688E1,-2.585737705E-1,-8.044517636E-1,9.777919769E0
1.131999375E1,-2.489969730E-1,-7.852981687E-1,9.758766174E0
1.134498906E1,-2.489969730E-1,-8.236053586E-1,9.768342972E0
1.136998750E1,-2.681505978E-1,-8.331822157E-1,9.806650162E0
1.139498281E1,-2.394201756E-1,-7.852981687E-1,9.797073364E0
1.141997969E1,-2.585737705E-1,-7.757213712E-1,9.777919769E0
1.144000156E1,-2.681505978E-1,-7.852981687E-1,9.758766174E0
1.146499844E1,-2.681505978E-1,-8.331822157E-1,9.749189377E0
1.148999531E1,-2.681505978E-1,-8.236053586E-1,9.768342972E0
1.151499063E1,-2.585737705E-1,-7.948749661E-1,9.768342972E0
1.153998750E1,-2.777273953E-1,-8.044517636E-1,9.768342972E0
1.156498438E1,-2.968810201E-1,-8.236053586E-1,9.797073364E0
1.158998125E1,-2.585737705E-1,-7.948749661E-1,9.777919769E0
1.161000156E1,-2.202665508E-1,-7.852981687E-1,9.758766174E0
1.163500000E1,-2.106897533E-1,-7.757213712E-1,9.758766174E0
1.165999688E1,-2.394201756E-1,-7.948749661E-1,9.787496567E0
1.168499219E1,-2.394201756E-1,-7.757213712E-1,9.806650162E0
1.170998906E1,-2.011129409E-1,-8.236053586E-1,9.797073364E0
1.173498438E1,-2.298433632E-1,-8.331822157E-1,9.768342972E0
1.175998281E1,-2.298433632E-1,-8.331822157E-1,9.787496567E0
1.178000469E1,-2.489969730E-1,-8.331822157E-1,9.758766174E0
1.180500000E1,-2.394201756E-1,-8.140285611E-1,9.749189377E0
1.182999688E1,-2.202665508E-1,-8.236053586E-1,9.797073364E0
1.185499375E1,-2.298433632E-1,-8.140285611E-1,9.777919769E0
1.187999063E1,-2.394201756E-1,-7.565677166E-1,9.758766174E0
1.190498594E1,-2.394201756E-1,-8.044517636E-1,9.797073364E0
1.192998281E1,-2.585737705E-1,-7.948749661E-1,9.787496567E0
1.195497969E1,-2.585737705E-1,-7.852981687E-1,9.777919769E0
1.197500156E1,-2.394201756E-1,-7.948749661E-1,9.777919769E0
1.199999844E1,-2.489969730E-1,-8.236053586E-1,9.768342972E0
1.202499531E1,-2.681505978E-1,-8.236053586E-1,9.768342972E0
1.204999063E1,-2.681505978E-1,-8.236053586E-1,9.777919769E0
1.207498594E1,-2.777273953E-1,-8.044517636E-1,9.787496567E0
1.210001406E1,-2.585737705E-1,-8.331822157E-1,9.777919769E0
1.212497969E1,-2.585737705E-1,-8.044517636E-1,9.758766174E0
1.214500312E1,-2.394201756E-1,-7.757213712E-1,9.768342972E0
1.217000000E1,-2.394201756E-1,-7.852981687E-1,9.768342972E0
1.219499531E1,-2.585737705E-1,-7.852981687E-1,9.768342972E0
1.222002500E1,-2.394201756E-1,-8.140285611E-1,9.758766174E0
1.224498750E1,-2.298433632E-1,-8.140285611E-1,9.787496567E0
1.226998438E1,-2.298433632E-1,-7.661445141E-1,9.777919769E0
1.229498125E1,-2.298433632E-1,-7.757213712E-1,9.720458984E0
1.231500312E1,-2.585737705E-1,-8.427590132E-1,9.739612579E0
1.234000000E1,-2.585737705E-1,-8.331822157E-1,9.797073364E0
1.236499688E1,-2.298433632E-1,-7.948749661E-1,9.797073364E0
1.238999375E1,-2.298433632E-1,-8.044517636E-1,9.758766174E0
1.241498906E1,-2.202665508E-1,-8.331822157E-1,9.758766174E0
1.243998594E1,-2.202665508E-1,-8.044517636E-1,9.768342972E0
1.246498281E1,-2.489969730E-1,-8.140285611E-1,9.758766174E0
1.248500469E1,-2.489969730E-1,-7.948749661E-1,9.768342972E0
1.251000156E1,-2.489969730E-1,-7.948749661E-1,9.777919769E0
1.253499844E1,-2.298433632E-1,-7.948749661E-1,9.787496567E0
1.255999375E1,-2.394201756E-1,-7.565677166E-1,9.758766174E0
1.258499063E1,-2.489969730E-1,-8.044517636E-1,9.749189377E0
1.260998750E1,-2.585737705E-1,-8.140285611E-1,9.787496567E0
1.263498281E1,-2.777273953E-1,-8.044517636E-1,9.777919769E0
1.265997969E1,-2.489969730E-1,-8.044517636E-1,9.768342972E0
1.268000312E1,-2.394201756E-1,-8.236053586E-1,9.758766174E0
1.270000625E1,-2.394201756E-1,-8.427590132E-1,9.758766174E0
1.272498906E1,-2.585737705E-1,-8.331822157E-1,9.758766174E0
1.274998594E1,-2.489969730E-1,-8.236053586E-1,9.797073364E0
1.277498125E1,-2.298433632E-1,-8.140285611E-1,9.758766174E0
1.279500469E1,-2.202665508E-1,-8.044517636E-1,9.777919769E0
1.282000313E1,-2.489969730E-1,-7.661445141E-1,9.768342972E0
1.284499844E1,-2.681505978E-1,-7.852981687E-1,9.768342972E0
1.286999531E1,-2.489969730E-1,-8.140285611E-1,9.768342972E0
1.289499062E1,-2.585737705E-1,-7.948749661E-1,9.758766174E0
1.291998750E1,-2.489969730E-1,-8.044517636E-1,9.768342972E0
1.294498281E1,-2.585737705E-1,-8.140285611E-1,9.768342972E0
1.296997969E1,-2.489969730E-1,-8.044517636E-1,9.777919769E0
1.299000313E1,-2.394201756E-1,-8.331822157E-1,9.768342972E0
1.301499844E1,-2.298433632E-1,-8.236053586E-1,9.787496567E0
1.303999531E1,-2.489969730E-1,-8.140285611E-1,9.777919769E0
1.306499219E1,-2.489969730E-1,-7.948749661E-1,9.768342972E0
1.308998906E1,-2.489969730E-1,-7.948749661E-1,9.758766174E0
1.311498438E1,-2.298433632E-1,-8.140285611E-1,9.777919769E0
1.313998125E1,-2.489969730E-1,-8.236053586E-1,9.777919769E0
1.316000313E1,-2.489969730E-1,-8.140285611E-1,9.768342972E0
1.318500000E1,-2.585737705E-1,-8.044517636E-1,9.787496567E0
1.320999688E1,-2.681505978E-1,-8.044517636E-1,9.758766174E0
1.323499219E1,-2.489969730E-1,-8.044517636E-1,9.758766174E0
1.325998906E1,-2.489969730E-1,-8.331822157E-1,9.777919769E0
1.328498594E1,-2.777273953E-1,-8.331822157E-1,9.749189377E0
1.330998281E1,-2.489969730E-1,-7.948749661E-1,9.777919769E0
1.333000469E1,-2.489969730E-1,-7.661445141E-1,9.758766174E0
1.335500156E1,-2.681505978E-1,-8.140285611E-1,9.730035782E0
1.337999844E1,-2.873041928E-1,-8.427590132E-1,9.768342972E0
1.340499375E1,-2.394201756E-1,-7.852981687E-1,9.806650162E0
1.342999062E1,-2.394201756E-1,-7.565677166E-1,9.749189377E0
1.345498594E1,-2.298433632E-1,-8.044517636E-1,9.730035782E0
1.347998281E1,-2.298433632E-1,-8.427590132E-1,9.777919769E0
1.350497969E1,-2.298433632E-1,-8.140285611E-1,9.777919769E0
1.352500156E1,-2.585737705E-1,-8.044517636E-1,9.787496567E0
1.354999844E1,-2.873041928E-1,-8.140285611E-1,9.749189377E0
1.357499531E1,-2.873041928E-1,-8.236053586E-1,9.758766174E0
1.359999219E1,-2.968810201E-1,-7.948749661E-1,9.768342972E0
1.362498750E1,-2.777273953E-1,-7.948749661E-1,9.758766174E0
1.364998438E1,-2.394201756E-1,-8.236053586E-1,9.777919769E0
1.367498125E1,-2.585737705E-1,-8.140285611E-1,9.768342972E0
1.369500313E1,-2.394201756E-1,-7.757213712E-1,9.768342972E0
1.372000000E1,-1.915361285E-1,-8.044517636E-1,9.768342972E0
1.374499688E1,-2.298433632E-1,-8.140285611E-1,9.777919769E0
1.376999375E1,-1.819593310E-1,-8.331822157E-1,9.787496567E0
1.379498906E1,-2.202665508E-1,-8.044517636E-1,9.768342972E0
1.381998594E1,-2.106897533E-1,-7.852981687E-1,9.777919769E0
1.384498125E1,-2.489969730E-1,-8.140285611E-1,9.787496567E0
1.386500469E1,-2.585737705E-1,-7.852981687E-1,9.758766174E0
1.389000156E1,-2.489969730E-1,-8.140285611E-1,9.758766174E0
1.391499688E1,-2.585737705E-1,-8.044517636E-1,9.768342972E0
1.393999375E1,-2.394201756E-1,-8.140285611E-1,9.749189377E0
1.396498906E1,-2.298433632E-1,-8.236053586E-1,9.758766174E0
1.398998750E1,-2.777273953E-1,-8.044517636E-1,9.777919769E0
1.401498281E1,-2.681505978E-1,-8.236053586E-1,9.758766174E0
1.403997969E1,-2.681505978E-1,-8.331822157E-1,9.749189377E0
1.406000156E1,-2.777273953E-1,-8.044517636E-1,9.758766174E0
1.408499844E1,-2.489969730E-1,-8.044517636E-1,9.749189377E0
1.410999531E1,-2.585737705E-1,-7.948749661E-1,9.768342972E0
1.413499219E1,-2.394201756E-1,-7.948749661E-1,9.777919769E0
1.415998750E1,-2.298433632E-1,-7.948749661E-1,9.768342972E0
1.418498438E1,-2.585737705E-1,-8.044517636E-1,9.739612579E0
1.420998125E1,-2.298433632E-1,-8.236053586E-1,9.768342972E0
1.423000313E1,-2.394201756E-1,-8.236053586E-1,9.777919769E0
1.425500000E1,-2.585737705E-1,-8.331822157E-1,9.777919769E0
1.427999531E1,-2.585737705E-1,-8.236053586E-1,9.777919769E0
1.430499219E1,-2.202665508E-1,-7.948749661E-1,9.777919769E0
1.432998906E1,-2.394201756E-1,-8.140285611E-1,9.730035782E0
1.435498438E1,-2.681505978E-1,-8.523358107E-1,9.758766174E0
1.437998906E1,-2.681505978E-1,-8.140285611E-1,9.797073364E0
1.440000469E1,-2.394201756E-1,-7.852981687E-1,9.797073364E0
1.442500000E1,-2.585737705E-1,-7.852981687E-1,9.758766174E0
1.444999688E1,-2.394201756E-1,-7.948749661E-1,9.730035782E0
1.447499375E1,-2.585737705E-1,-8.140285611E-1,9.768342972E0
1.450003594E1,-2.489969730E-1,-8.140285611E-1,9.749189377E0
1.452498594E1,-2.585737705E-1,-7.948749661E-1,9.768342972E0
1.454998281E1,-2.681505978E-1,-8.044517636E-1,9.758766174E0
1.457000469E1,-2.681505978E-1,-7.948749661E-1,9.758766174E0
1.459500156E1,-2.489969730E-1,-7.948749661E-1,9.768342972E0
1.461999844E1,-2.489969730E-1,-8.140285611E-1,9.758766174E0
1.464499375E1,-2.394201756E-1,-7.948749661E-1,9.768342972E0
1.466999062E1,-2.298433632E-1,-8.140285611E-1,9.768342972E0
1.469498750E1,-2.298433632E-1,-8.140285611E-1,9.768342972E0
1.471998438E1,-2.298433632E-1,-8.140285611E-1,9.768342972E0
1.474000313E1,-2.394201756E-1,-8.140285611E-1,9.777919769E0
1.476500156E1,-2.394201756E-1,-8.236053586E-1,9.739612579E0
1.479000000E1,-2.202665508E-1,-8.236053586E-1,9.758766174E0
1.481499531E1,-2.202665508E-1,-8.236053586E-1,9.768342972E0
1.483999219E1,-2.202665508E-1,-7.948749661E-1,9.777919769E0
1.486498750E1,-2.489969730E-1,-7.948749661E-1,9.768342972E0
1.488998438E1,-2.394201756E-1,-7.948749661E-1,9.758766174E0
1.491498125E1,-2.585737705E-1,-7.948749661E-1,9.768342972E0
1.493500313E1,-2.777273953E-1,-7.948749661E-1,9.768342972E0
1.496000000E1,-2.681505978E-1,-8.140285611E-1,9.768342972E0
1.498499688E1,-2.777273953E-1,-7.948749661E-1,9.787496567E0
1.500999375E1,-2.585737705E-1,-8.140285611E-1,9.768342972E0
1.503498906E1,-2.489969730E-1,-7.948749661E-1,9.768342972E0
1.505998594E1,-2.489969730E-1,-8.331822157E-1,9.787496567E0
1.508498281E1,-2.585737705E-1,-8.044517636E-1,9.777919769E0
1.510500469E1,-2.298433632E-1,-8.044517636E-1,9.758766174E0
1.513000156E1,-2.394201756E-1,-7.948749661E-1,9.768342972E0
1.515499688E1,-2.681505978E-1,-7.948749661E-1,9.768342972E0
1.517999375E1,-2.681505978E-1,-7.948749661E-1,9.787496567E0
1.520499062E1,-2.394201756E-1,-8.140285611E-1,9.758766174E0
1.522998750E1,-2.489969730E-1,-8.140285611E-1,9.777919769E0
1.525498438E1,-2.585737705E-1,-7.948749661E-1,9.777919769E0
1.527998125E1,-2.489969730E-1,-8.044517636E-1,9.777919769E0
1.530000313E1,-2.011129409E-1,-8.044517636E-1,9.787496567E0
1.532499844E1,-2.298433632E-1,-8.140285611E-1,9.768342972E0
1.534999531E1,-2.489969730E-1,-7.948749661E-1,9.758766174E0
1.537499219E1,-2.394201756E-1,-7.948749661E-1,9.777919769E0
1.539998750E1,-2.106897533E-1,-7.948749661E-1,9.758766174E0
1.542498438E1,-2.585737705E-1,-7.948749661E-1,9.758766174E0
1.544998125E1,-2.298433632E-1,-8.331822157E-1,9.797073364E0
1.547000313E1,-2.489969730E-1,-8.044517636E-1,9.797073364E0
1.549500000E1,-2.394201756E-1,-7.948749661E-1,9.768342972E0
1.551999688E1,-2.298433632E-1,-7.948749661E-1,9.758766174E0
1.554499375E1,-2.394201756E-1,-8.044517636E-1,9.749189377E0
1.556998906E1,-2.489969730E-1,-8.140285611E-1,9.768342972E0
1.559498438E1,-2.394201756E-1,-8.044517636E-1,9.749189377E0
1.561998281E1,-2.394201756E-1,-8.140285611E-1,9.777919769E0
1.564000469E1,-2.489969730E-1,-7.948749661E-1,9.787496567E0
1.566500000E1,-2.489969730E-1,-7.852981687E-1,9.787496567E0
1.568999844E1,-2.489969730E-1,-8.044517636E-1,9.749189377E0
1.571499375E1,-2.489969730E-1,-8.044517636E-1,9.749189377E0
1.573999062E1,-2.489969730E-1,-8.044517636E-1,9.787496567E0
1.576498594E1,-2.585737705E-1,-7.948749661E-1,9.749189377E0
1.578998281E1,-2.585737705E-1,-8.427590132E-1,9.768342972E0
1.581497969E1,-2.202665508E-1,-8.331822157E-1,9.777919769E0
1.583500156E1,-2.585737705E-1,-8.140285611E-1,9.758766174E0
1.585999844E1,-2.394201756E-1,-8.044517636E-1,9.768342972E0
1.588499531E1,-2.489969730E-1,-8.331822157E-1,9.787496567E0
1.590999219E1,-2.298433632E-1,-8.044517636E-1,9.768342972E0
1.593498750E1,-2.394201756E-1,-8.044517636E-1,9.758766174E0
1.595998438E1,-2.394201756E-1,-7.852981687E-1,9.758766174E0
1.598497969E1,-2.394201756E-1,-8.331822157E-1,9.768342972E0
1.600500312E1,-2.298433632E-1,-7.948749661E-1,9.768342972E0
1.603000000E1,-2.394201756E-1,-7.852981687E-1,9.777919769E0
1.605499531E1,-2.202665508E-1,-8.044517636E-1,9.749189377E0
1.607999375E1,-2.394201756E-1,-7.948749661E-1,9.758766174E0
1.610498750E1,-2.489969730E-1,-8.044517636E-1,9.768342972E0
1.612998594E1,-2.202665508E-1,-8.044517636E-1,9.758766174E0
1.615498125E1,-2.298433632E-1,-8.140285611E-1,9.777919769E0
1.617500312E1,-2.298433632E-1,-8.140285611E-1,9.758766174E0
1.620000156E1,-2.394201756E-1,-8.044517636E-1,9.758766174E0
1.622499688E1,-2.489969730E-1,-8.236053586E-1,9.768342972E0
1.624999375E1,-2.489969730E-1,-8.140285611E-1,9.768342972E0
1.627498906E1,-2.585737705E-1,-8.331822157E-1,9.768342972E0
1.630001562E1,-2.298433632E-1,-8.140285611E-1,9.758766174E0
1.632498281E1,-2.489969730E-1,-7.948749661E-1,9.768342972E0
1.634997969E1,-2.394201756E-1,-7.948749661E-1,9.777919769E0
1.637000156E1,-2.394201756E-1,-8.044517636E-1,9.797073364E0
1.639499688E1,-2.681505978E-1,-8.044517636E-1,9.797073364E0
1.641999688E1,-2.394201756E-1,-7.948749661E-1,9.777919769E0
1.644499063E1,-2.585737705E-1,-7.948749661E-1,9.787496567E0
1.646998750E1,-2.394201756E-1,-8.044517636E-1,9.777919769E0
1.649498281E1,-2.777273953E-1,-8.427590132E-1,9.777919769E0
1.651998125E1,-2.585737705E-1,-8.236053586E-1,9.816226959E0
1.654001250E1,-2.489969730E-1,-7.852981687E-1,9.797073364E0
1.656499844E1,-2.489969730E-1,-7.948749661E-1,9.768342972E0
1.658999531E1,-2.585737705E-1,-7.948749661E-1,9.787496567E0
1.661499219E1,-2.489969730E-1,-8.236053586E-1,9.797073364E0
1.663998906E1,-2.298433632E-1,-8.236053586E-1,9.797073364E0
1.666498438E1,-2.394201756E-1,-8.044517636E-1,9.739612579E0
1.668998125E1,-2.585737705E-1,-8.236053586E-1,9.797073364E0
1.671000469E1,-2.681505978E-1,-7.948749661E-1,9.777919769E0
1.673500000E1,-2.394201756E-1,-7.948749661E-1,9.768342972E0
1.675999688E1,-2.394201756E-1,-8.044517636E-1,9.758766174E0
1.678499375E1,-2.298433632E-1,-8.140285611E-1,9.777919769E0
1.680998906E1,-2.585737705E-1,-7.948749661E-1,9.806650162E0
1.683498594E1,-2.489969730E-1,-7.852981687E-1,9.768342972E0
1.685998281E1,-2.489969730E-1,-8.140285611E-1,9.787496567E0
1.688000469E1,-2.585737705E-1,-8.427590132E-1,9.777919769E0
1.690002188E1,-2.394201756E-1,-8.044517636E-1,9.777919769E0
1.692499219E1,-2.585737705E-1,-8.044517636E-1,9.787496567E0
1.694998906E1,-2.394201756E-1,-8.044517636E-1,9.787496567E0
1.697498438E1,-2.394201756E-1,-8.044517636E-1,9.768342972E0
1.699998125E1,-2.394201756E-1,-7.852981687E-1,9.768342972E0
1.702000313E1,-2.489969730E-1,-7.948749661E-1,9.787496567E0
1.704500000E1,-2.681505978E-1,-8.044517636E-1,9.777919769E0
1.706999688E1,-2.489969730E-1,-8.044517636E-1,9.777919769E0
1.709499375E1,-2.681505978E-1,-7.948749661E-1,9.777919769E0
1.711998906E1,-2.489969730E-1,-7.948749661E-1,9.777919769E0
1.714498594E1,-2.585737705E-1,-8.044517636E-1,9.777919769E0
1.716998281E1,-2.489969730E-1,-8.044517636E-1,9.768342972E0
1.719000469E1,-2.394201756E-1,-7.852981687E-1,9.777919769E0
1.721500156E1,-2.394201756E-1,-7.948749661E-1,9.768342972E0
1.723999844E1,-2.394201756E-1,-8.140285611E-1,9.797073364E0
1.726499375E1,-2.394201756E-1,-8.140285611E-1,9.768342972E0
1.728999062E1,-2.202665508E-1,-7.852981687E-1,9.768342972E0
1.731498594E1,-2.585737705E-1,-8.140285611E-1,9.777919769E0
1.733998438E1,-2.489969730E-1,-8.140285611E-1,9.787496567E0
1.736497969E1,-2.681505978E-1,-8.044517636E-1,9.787496567E0
1.738500156E1,-2.394201756E-1,-8.044517636E-1,9.768342972E0
1.741000000E1,-2.585737705E-1,-7.852981687E-1,9.768342972E0
1.743499531E1,-2.585737705E-1,-8.044517636E-1,9.758766174E0
1.745999219E1,-2.489969730E-1,-8.140285611E-1,9.758766174E0
1.748498750E1,-2.681505978E-1,-8.523358107E-1,9.768342972E0
1.750998438E1,-2.585737705E-1,-8.140285611E-1,9.825803757E0
1.753498125E1,-2.489969730E-1,-7.565677166E-1,9.797073364E0
1.755500313E1,-2.394201756E-1,-7.852981687E-1,9.768342972E0
1.758000000E1,-2.298433632E-1,-8.140285611E-1,9.777919769E0
1.760499531E1,-2.489969730E-1,-8.140285611E-1,9.758766174E0
1.762999375E1,-2.489969730E-1,-7.948749661E-1,9.758766174E0
1.765498906E1,-2.681505978E-1,-7.948749661E-1,9.758766174E0
1.767998594E1,-2.489969730E-1,-8.044517636E-1,9.777919769E0
1.770498125E1,-2.489969730E-1,-8.044517636E-1,9.777919769E0
1.772500469E1,-2.585737705E-1,-8.044517636E-1,9.768342972E0
1.775000156E1,-2.489969730E-1,-8.044517636E-1,9.749189377E0
1.777499688E1,-2.394201756E-1,-8.236053586E-1,9.787496567E0
1.779999375E1,-2.394201756E-1,-8.236053586E-1,9.787496567E0
1.782499062E1,-2.106897533E-1,-8.044517636E-1,9.777919769E0
1.784998750E1,-2.202665508E-1,-8.236053586E-1,9.777919769E0
1.787498281E1,-2.489969730E-1,-8.140285611E-1,9.777919769E0
1.789998125E1,-2.585737705E-1,-8.331822157E-1,9.777919769E0
1.792000312E1,-2.489969730E-1,-8.044517636E-1,9.777919769E0
1.794499844E1,-2.489969730E-1,-8.044517636E-1,9.749189377E0
1.796999531E1,-2.585737705E-1,-8.044517636E-1,9.787496567E0
1.799499062E1,-2.681505978E-1,-8.044517636E-1,9.768342972E0
1.801998906E1,-2.489969730E-1,-7.948749661E-1,9.797073364E0
1.804498438E1,-2.777273953E-1,-8.140285611E-1,9.806650162E0
1.806998125E1,-2.681505978E-1,-8.044517636E-1,9.758766174E0
1.809000469E1,-2.489969730E-1,-7.948749661E-1,9.758766174E0
1.811500000E1,-2.394201756E-1,-8.140285611E-1,9.758766174E0
1.813999688E1,-2.394201756E-1,-7.948749661E-1,9.768342972E0
1.816499219E1,-2.298433632E-1,-8.140285611E-1,9.777919769E0
1.818998906E1,-2.489969730E-1,-7.948749661E-1,9.777919769E0
1.821498438E1,-2.394201756E-1,-8.140285611E-1,9.777919769E0
1.823998281E1,-2.298433632E-1,-8.044517636E-1,9.777919769E0
1.826000469E1,-2.585737705E-1,-7.852981687E-1,9.777919769E0
1.828500000E1,-2.298433632E-1,-8.044517636E-1,9.758766174E0
1.830999844E1,-2.585737705E-1,-8.140285611E-1,9.777919769E0
1.833499375E1,-2.489969730E-1,-8.140285611E-1,9.777919769E0
1.835999063E1,-2.681505978E-1,-7.852981687E-1,9.777919769E0
1.838498594E1,-2.298433632E-1,-7.852981687E-1,9.768342972E0
1.840998281E1,-2.489969730E-1,-7.852981687E-1,9.749189377E0
1.843497969E1,-2.681505978E-1,-8.236053586E-1,9.768342972E0
1.845500156E1,-2.585737705E-1,-8.140285611E-1,9.797073364E0
1.847999844E1,-2.394201756E-1,-7.852981687E-1,9.797073364E0
1.850499375E1,-2.298433632E-1,-7.852981687E-1,9.768342972E0
1.852999219E1,-2.394201756E-1,-8.044517636E-1,9.768342972E0
1.855498750E1,-2.394201756E-1,-7.948749661E-1,9.758766174E0
1.857998438E1,-2.489969730E-1,-7.948749661E-1,9.768342972E0
1.860497969E1,-2.585737705E-1,-8.140285611E-1,9.758766174E0
1.862500313E1,-2.298433632E-1,-8.044517636E-1,9.758766174E0
1.865000000E1,-2.394201756E-1,-7.852981687E-1,9.777919769E0
1.867499531E1,-2.681505978E-1,-7.948749661E-1,9.777919769E0
1.869999531E1,-2.489969730E-1,-8.044517636E-1,9.768342972E0
1.872498750E1,-2.394201756E-1,-8.236053586E-1,9.787496567E0
1.874998594E1,-2.202665508E-1,-8.044517636E-1,9.816226959E0
1.877498125E1,-2.394201756E-1,-7.948749661E-1,9.777919769E0
1.879500312E1,-2.202665508E-1,-8.140285611E-1,9.749189377E0
1.882000000E1,-2.394201756E-1,-8.236053586E-1,9.758766174E0
1.884499688E1,-2.489969730E-1,-8.236053586E-1,9.768342972E0
1.886999375E1,-2.394201756E-1,-8.140285611E-1,9.787496567E0
1.889498906E1,-2.394201756E-1,-8.044517636E-1,9.797073364E0
1.891998750E1,-2.202665508E-1,-7.948749661E-1,9.797073364E0
1.894001250E1,-2.489969730E-1,-7.948749661E-1,9.777919769E0
1.896500469E1,-2.489969730E-1,-8.140285611E-1,9.758766174E0
1.899000156E1,-2.394201756E-1,-8.044517636E-1,9.777919769E0
1.901499688E1,-2.394201756E-1,-7.948749661E-1,9.758766174E0
1.903999531E1,-2.777273953E-1,-7.948749661E-1,9.787496567E0
1.906499062E1,-2.394201756E-1,-8.140285611E-1,9.768342972E0
1.908998750E1,-2.681505978E-1,-8.236053586E-1,9.758766174E0
1.911498281E1,-2.489969730E-1,-7.948749661E-1,9.768342972E0
1.913998125E1,-2.489969730E-1,-8.140285611E-1,9.768342972E0
1.916000313E1,-2.394201756E-1,-8.044517636E-1,9.777919769E0
1.918499844E1,-2.489969730E-1,-7.852981687E-1,9.777919769E0
1.920999531E1,-2.585737705E-1,-8.044517636E-1,9.768342972E0
1.923499219E1,-2.394201756E-1,-8.236053586E-1,9.777919769E0
1.925998906E1,-2.394201756E-1,-8.140285611E-1,9.768342972E0
1.928498438E1,-2.202665508E-1,-8.331822157E-1,9.758766174E0
1.930998125E1,-2.585737705E-1,-8.140285611E-1,9.768342972E0
1.933000469E1,-2.394201756E-1,-8.140285611E-1,9.797073364E0
1.935500000E1,-2.489969730E-1,-8.044517636E-1,9.787496567E0
1.937999688E1,-2.585737705E-1,-7.661445141E-1,9.758766174E0
1.940499375E1,-2.489969730E-1,-8.140285611E-1,9.758766174E0
1.942998906E1,-2.585737705E-1,-8.427590132E-1,9.777919769E0
1.945498594E1,-2.585737705E-1,-8.044517636E-1,9.806650162E0
1.947998281E1,-2.585737705E-1,-7.757213712E-1,9.787496567E0
1.950000469E1,-2.585737705E-1,-7.948749661E-1,9.777919769E0
1.952500156E1,-2.681505978E-1,-8.044517636E-1,9.758766174E0
1.954999844E1,-2.394201756E-1,-8.044517636E-1,9.749189377E0
1.957499375E1,-2.106897533E-1,-8.044517636E-1,9.777919769E0
1.959999062E1,-2.202665508E-1,-7.948749661E-1,9.768342972E0
1.962498594E1,-2.489969730E-1,-7.948749661E-1,9.768342972E0
1.964998438E1,-2.585737705E-1,-7.948749661E-1,9.777919769E0
1.967497969E1,-2.489969730E-1,-7.852981687E-1,9.758766174E0
1.969500156E1,-2.298433632E-1,-8.331822157E-1,9.739612579E0
1.971999844E1,-2.777273953E-1,-8.140285611E-1,9.777919769E0
1.974499531E1,-2.489969730E-1,-7.948749661E-1,9.758766174E0
1.976999219E1,-2.489969730E-1,-8.044517636E-1,9.768342972E0
1.979498750E1,-2.202665508E-1,-8.236053586E-1,9.749189377E0
1.981998438E1,-2.489969730E-1,-8.236053586E-1,9.768342972E0
1.984498125E1,-2.489969730E-1,-8.427590132E-1,9.787496567E0
1.986500312E1,-2.394201756E-1,-8.427590132E-1,9.777919769E0
1.989000000E1,-2.202665508E-1,-8.044517636E-1,9.768342972E0
1.991499688E1,-2.298433632E-1,-7.948749661E-1,9.758766174E0
1.993999375E1,-2.585737705E-1,-7.852981687E-1,9.768342972E0
1.996498906E1,-2.585737705E-1,-8.044517636E-1,9.758766174E0
1.998998594E1,-2.585737705E-1,-7.852981687E-1,9.768342972E0
2.001498125E1,-2.777273953E-1,-7.757213712E-1,9.768342972E0
2.003500469E1,-2.777273953E-1,-8.140285611E-1,9.758766174E0
2.006000156E1,-2.681505978E-1,-8.236053586E-1,9.768342972E0
2.008499688E1,-2.106897533E-1,-8.331822157E-1,9.777919769E0
2.010999375E1,-2.106897533E-1,-8.140285611E-1,9.787496567E0
2.013498906E1,-2.011129409E-1,-8.044517636E-1,9.787496567E0
2.015998750E1,-2.011129409E-1,-8.140285611E-1,9.768342972E0
2.018498281E1,-2.394201756E-1,-7.852981687E-1,9.768342972E0
2.020997969E1,-2.681505978E-1,-8.044517636E-1,9.768342972E0
2.023000312E1,-2.873041928E-1,-8.044517636E-1,9.749189377E0
2.025499844E1,-2.585737705E-1,-8.044517636E-1,9.797073364E0
2.027999531E1,-2.585737705E-1,-8.140285611E-1,9.758766174E0
2.030499063E1,-2.394201756E-1,-8.044517636E-1,9.758766174E0
2.032998750E1,-2.394201756E-1,-8.236053586E-1,9.768342972E0
2.035498438E1,-2.106897533E-1,-8.140285611E-1,9.749189377E0
2.038002656E1,-2.202665508E-1,-8.140285611E-1,9.758766174E0
2.040497656E1,-2.585737705E-1,-8.523358107E-1,9.777919769E0
2.042500000E1,-2.394201756E-1,-8.140285611E-1,9.797073364E0
2.044999531E1,-2.298433632E-1,-7.469909191E-1,9.787496567E0
2.047499219E1,-2.585737705E-1,-7.469909191E-1,9.758766174E0
2.050000313E1,-2.394201756E-1,-8.140285611E-1,9.777919769E0
2.052498594E1,-2.585737705E-1,-7.948749661E-1,9.768342972E0
2.054998281E1,-2.298433632E-1,-8.140285611E-1,9.749189377E0
2.057000469E1,-2.489969730E-1,-8.044517636E-1,9.758766174E0
2.059500000E1,-2.489969730E-1,-8.331822157E-1,9.777919769E0
2.061999688E1,-2.394201756E-1,-8.331822157E-1,9.797073364E0
2.064499375E1,-2.489969730E-1,-7.948749661E-1,9.758766174E0
2.066999062E1,-2.202665508E-1,-8.140285611E-1,9.768342972E0
2.069498594E1,-2.489969730E-1,-7.948749661E-1,9.825803757E0
2.071998281E1,-2.681505978E-1,-7.948749661E-1,9.768342972E0
2.074497813E1,-2.777273953E-1,-7.757213712E-1,9.758766174E0
2.076500156E1,-2.681505978E-1,-8.044517636E-1,9.758766174E0
2.078999844E1,-2.585737705E-1,-8.044517636E-1,9.758766174E0
2.081499375E1,-2.394201756E-1,-7.757213712E-1,9.768342972E0
2.083999063E1,-2.489969730E-1,-7.757213712E-1,9.739612579E0
2.086000469E1,-2.585737705E-1,-8.140285611E-1,9.797073364E0
2.088000469E1,-2.489969730E-1,-8.140285611E-1,9.797073364E0
2.090500156E1,-2.394201756E-1,-8.140285611E-1,9.787496567E0
2.092999688E1,-2.394201756E-1,-8.044517636E-1,9.768342972E0
2.095499375E1,-2.394201756E-1,-8.427590132E-1,9.768342972E0
2.097999063E1,-2.777273953E-1,-8.044517636E-1,9.758766174E0
2.100498594E1,-2.585737705E-1,-8.236053586E-1,9.787496567E0
2.102998281E1,-2.681505978E-1,-8.236053586E-1,9.777919769E0
2.105497969E1,-2.489969730E-1,-8.236053586E-1,9.768342972E0
2.107500156E1,-2.489969730E-1,-7.948749661E-1,9.777919769E0
2.110002344E1,-2.298433632E-1,-8.044517636E-1,9.797073364E0
2.112499375E1,-2.489969730E-1,-8.044517636E-1,9.787496567E0
2.114999219E1,-2.298433632E-1,-8.044517636E-1,9.758766174E0
2.117498750E1,-2.298433632E-1,-8.331822157E-1,9.768342972E0
2.119998438E1,-2.681505978E-1,-7.948749661E-1,9.777919769E0
2.122497969E1,-2.585737705E-1,-8.140285611E-1,9.777919769E0
2.124500312E1,-2.681505978E-1,-8.044517636E-1,9.758766174E0
2.127000000E1,-2.298433632E-1,-7.948749661E-1,9.768342972E0
2.129499531E1,-2.585737705E-1,-8.331822157E-1,9.739612579E0
2.131999219E1,-2.777273953E-1,-8.331822157E-1,9.777919769E0
2.133999219E1,-2.681505978E-1,-8.331822157E-1,9.797073364E0
2.136497969E1,-2.298433632E-1,-7.661445141E-1,9.768342972E0
2.138500156E1,-2.298433632E-1,-7.757213712E-1,9.758766174E0
2.140999844E1,-2.585737705E-1,-8.044517636E-1,9.777919769E0
2.143499375E1,-2.202665508E-1,-8.044517636E-1,9.749189377E0
2.145999062E1,-2.298433632E-1,-7.948749661E-1,9.787496567E0
2.148498750E1,-2.298433632E-1,-7.948749661E-1,9.777919769E0
2.150998438E1,-2.777273953E-1,-8.140285611E-1,9.797073364E0
2.153498125E1,-2.681505978E-1,-7.852981687E-1,9.768342972E0
2.155500313E1,-2.585737705E-1,-8.236053586E-1,9.768342972E0
2.158000000E1,-2.394201756E-1,-8.140285611E-1,9.777919769E0
2.160499531E1,-2.202665508E-1,-8.140285611E-1,9.777919769E0
2.162999219E1,-2.394201756E-1,-7.948749661E-1,9.787496567E0
2.165498750E1,-2.298433632E-1,-7.948749661E-1,9.768342972E0
2.167998594E1,-2.202665508E-1,-8.236053586E-1,9.768342972E0
2.170498125E1,-2.489969730E-1,-8.140285611E-1,9.787496567E0
2.172500312E1,-2.489969730E-1,-8.140285611E-1,9.768342972E0
2.175000156E1,-2.394201756E-1,-8.140285611E-1,9.768342972E0
2.177499688E1,-2.489969730E-1,-8.140285611E-1,9.777919769E0
2.179999375E1,-2.585737705E-1,-7.757213712E-1,9.758766174E0
2.182498906E1,-2.298433632E-1,-7.852981687E-1,9.758766174E0
2.184998594E1,-2.394201756E-1,-7.948749661E-1,9.777919769E0
2.187498281E1,-2.394201756E-1,-8.044517636E-1,9.797073364E0
2.189500469E1,-2.489969730E-1,-8.044517636E-1,9.749189377E0
2.192000156E1,-2.394201756E-1,-7.948749661E-1,9.768342972E0
2.194000469E1,-2.489969730E-1,-8.140285611E-1,9.777919769E0
2.196498750E1,-2.202665508E-1,-7.852981687E-1,9.758766174E0
2.198998594E1,-2.298433632E-1,-8.044517636E-1,9.749189377E0
2.201498125E1,-2.585737705E-1,-8.140285611E-1,9.777919769E0
2.203500469E1,-2.681505978E-1,-8.140285611E-1,9.758766174E0
2.206000000E1,-2.585737705E-1,-8.140285611E-1,9.768342972E0
2.208499688E1,-2.585737705E-1,-7.948749661E-1,9.777919769E0
2.211001875E1,-2.585737705E-1,-8.140285611E-1,9.777919769E0
2.213498906E1,-2.489969730E-1,-8.140285611E-1,9.768342972E0
2.215998594E1,-2.489969730E-1,-8.044517636E-1,9.777919769E0
2.218000469E1,-2.394201756E-1,-8.044517636E-1,9.758766174E0
2.220497344E1,-2.394201756E-1,-7.948749661E-1,9.797073364E0
2.222499688E1,-2.394201756E-1,-7.852981687E-1,9.768342972E0
2.224999375E1,-2.489969730E-1,-7.852981687E-1,9.787496567E0
2.227498906E1,-2.106897533E-1,-8.140285611E-1,9.749189377E0
2.229998594E1,-2.681505978E-1,-8.523358107E-1,9.806650162E0
2.232498125E1,-2.394201756E-1,-7.852981687E-1,9.806650162E0
2.234500312E1,-2.489969730E-1,-7.757213712E-1,9.797073364E0
2.237000156E1,-2.585737705E-1,-8.140285611E-1,9.777919769E0
2.239499688E1,-2.394201756E-1,-8.140285611E-1,9.806650162E0
2.241999531E1,-2.394201756E-1,-8.236053586E-1,9.749189377E0
2.244498906E1,-2.298433632E-1,-8.140285611E-1,9.768342972E0
2.246998594E1,-2.585737705E-1,-8.044517636E-1,9.806650162E0
2.249498281E1,-2.681505978E-1,-7.948749661E-1,9.787496567E0
2.251997969E1,-2.394201756E-1,-7.661445141E-1,9.758766174E0
2.254000469E1,-2.106897533E-1,-7.948749661E-1,9.777919769E0
2.256499844E1,-2.585737705E-1,-8.140285611E-1,9.777919769E0
2.258999531E1,-2.489969730E-1,-8.140285611E-1,9.777919769E0
2.261499062E1,-2.585737705E-1,-7.948749661E-1,9.777919769E0
2.263998750E1,-2.394201756E-1,-7.948749661E-1,9.787496567E0
2.266498438E1,-2.298433632E-1,-8.236053586E-1,9.777919769E0
2.268998125E1,-2.298433632E-1,-7.948749661E-1,9.758766174E0
2.271000312E1,-2.489969730E-1,-8.140285611E-1,9.768342972E0
2.273499844E1,-2.489969730E-1,-8.236053586E-1,9.768342972E0
2.275999531E1,-2.202665508E-1,-8.044517636E-1,9.787496567E0
2.278499219E1,-2.298433632E-1,-7.852981687E-1,9.777919769E0
2.280998906E1,-2.298433632E-1,-8.044517636E-1,9.777919769E0
2.283498438E1,-2.681505978E-1,-8.140285611E-1,9.787496567E0
2.285998125E1,-2.585737705E-1,-8.044517636E-1,9.787496567E0
2.288000469E1,-2.585737705E-1,-7.948749661E-1,9.797073364E0
2.290003906E1,-2.585737705E-1,-7.948749661E-1,9.777919769E0
2.292499063E1,-2.681505978E-1,-8.044517636E-1,9.787496567E0
2.294998750E1,-2.489969730E-1,-8.044517636E-1,9.806650162E0
2.297498438E1,-2.202665508E-1,-7.948749661E-1,9.749189377E0
2.299998125E1,-2.489969730E-1,-7.948749661E-1,9.787496567E0
2.302000313E1,-2.202665508E-1,-7.948749661E-1,9.806650162E0
2.304500000E1,-2.298433632E-1,-8.140285611E-1,9.787496567E0
2.306999688E1,-2.489969730E-1,-8.331822157E-1,9.777919769E0
2.309499219E1,-2.298433632E-1,-7.852981687E-1,9.806650162E0
2.311998906E1,-2.489969730E-1,-7.948749661E-1,9.777919769E0
2.314000938E1,-2.394201756E-1,-8.236053586E-1,9.777919769E0
2.316497500E1,-2.202665508E-1,-8.331822157E-1,9.777919769E0
2.318499844E1,-2.489969730E-1,-8.044517636E-1,9.797073364E0
2.320999531E1,-2.106897533E-1,-8.140285611E-1,9.806650162E0
2.323499063E1,-2.202665508E-1,-7.757213712E-1,9.777919769E0
2.325998750E1,-2.489969730E-1,-7.757213712E-1,9.777919769E0
2.328498438E1,-2.489969730E-1,-7.852981687E-1,9.730035782E0
2.330998125E1,-2.681505978E-1,-8.044517636E-1,9.816226959E0
2.333000312E1,-2.489969730E-1,-7.948749661E-1,9.797073364E0
2.335500000E1,-2.489969730E-1,-7.757213712E-1,9.768342972E0
2.337999531E1,-2.585737705E-1,-8.140285611E-1,9.739612579E0
2.340499219E1,-2.298433632E-1,-8.044517636E-1,9.777919769E0
2.342998906E1,-2.489969730E-1,-8.236053586E-1,9.787496567E0
2.345498438E1,-2.777273953E-1,-8.140285611E-1,9.758766174E0
2.347998281E1,-2.489969730E-1,-8.236053586E-1,9.787496567E0
2.350002969E1,-2.681505978E-1,-8.044517636E-1,9.806650162E0
2.352500000E1,-2.394201756E-1,-7.757213712E-1,9.797073364E0
2.354999688E1,-2.106897533E-1,-7.661445141E-1,9.777919769E0
2.357499375E1,-1.915361285E-1,-8.140285611E-1,9.758766174E0
2.359998906E1,-2.011129409E-1,-8.044517636E-1,9.777919769E0
2.362498594E1,-1.819593310E-1,-8.044517636E-1,9.777919769E0
2.364998281E1,-2.202665508E-1,-8.331822157E-1,9.797073364E0
2.367497969E1,-2.394201756E-1,-8.140285611E-1,9.777919769E0
2.369500156E1,-2.298433632E-1,-8.044517636E-1,9.787496567E0
2.371999844E1,-2.681505978E-1,-7.948749661E-1,9.797073364E0
2.374499375E1,-2.585737705E-1,-8.140285611E-1,9.777919769E0
2.376999219E1,-2.681505978E-1,-7.757213712E-1,9.758766174E0
2.379498594E1,-3.064578176E-1,-7.852981687E-1,9.797073364E0
2.381998438E1,-2.394201756E-1,-8.044517636E-1,9.787496567E0
2.384497969E1,-2.873041928E-1,-7.852981687E-1,9.749189377E0
2.386500312E1,-3.064578176E-1,-8.236053586E-1,9.730035782E0
2.389000000E1,-2.585737705E-1,-8.427590132E-1,9.797073364E0
2.391499531E1,-2.777273953E-1,-8.619126081E-1,9.797073364E0
2.393999219E1,-2.681505978E-1,-8.140285611E-1,9.768342972E0
2.396498750E1,-2.489969730E-1,-8.236053586E-1,9.768342972E0
2.398998438E1,-2.489969730E-1,-8.140285611E-1,9.777919769E0
2.401498125E1,-2.489969730E-1,-7.852981687E-1,9.768342972E0
2.403500469E1,-2.489969730E-1,-7.852981687E-1,9.768342972E0
2.406000000E1,-2.681505978E-1,-7.565677166E-1,9.777919769E0
2.408499688E1,-2.585737705E-1,-7.565677166E-1,9.768342972E0
2.410999375E1,-2.489969730E-1,-7.661445141E-1,9.777919769E0
2.413498906E1,-2.394201756E-1,-7.852981687E-1,9.768342972E0
2.415998594E1,-2.298433632E-1,-8.236053586E-1,9.777919769E0
2.418498281E1,-2.681505978E-1,-8.523358107E-1,9.787496567E0
2.420500469E1,-2.011129409E-1,-8.427590132E-1,9.787496567E0
2.423000156E1,-1.819593310E-1,-8.140285611E-1,9.768342972E0
2.425499688E1,-2.394201756E-1,-8.523358107E-1,9.758766174E0
2.427999531E1,-2.681505978E-1,-8.619126081E-1,9.797073364E0
2.430499063E1,-2.585737705E-1,-8.044517636E-1,9.816226959E0
2.432999375E1,-2.489969730E-1,-7.469909191E-1,9.768342972E0
2.435498281E1,-2.585737705E-1,-8.044517636E-1,9.739612579E0
2.437997969E1,-2.681505978E-1,-8.044517636E-1,9.758766174E0
2.440000312E1,-2.777273953E-1,-7.852981687E-1,9.758766174E0
2.442499844E1,-2.873041928E-1,-8.140285611E-1,9.758766174E0
2.444999531E1,-2.873041928E-1,-7.948749661E-1,9.758766174E0
2.447499219E1,-2.489969730E-1,-7.948749661E-1,9.777919769E0
2.449998750E1,-2.681505978E-1,-7.852981687E-1,9.768342972E0
2.452498438E1,-2.489969730E-1,-7.948749661E-1,9.758766174E0
2.454998125E1,-2.394201756E-1,-8.236053586E-1,9.768342972E0
2.457000313E1,-2.202665508E-1,-8.044517636E-1,9.777919769E0
2.459500000E1,-2.106897533E-1,-8.140285611E-1,9.768342972E0
2.461999688E1,-2.106897533E-1,-8.523358107E-1,9.768342972E0
2.464499219E1,-2.394201756E-1,-8.427590132E-1,9.758766174E0
2.466998906E1,-2.298433632E-1,-8.236053586E-1,9.777919769E0
2.469498594E1,-2.394201756E-1,-8.044517636E-1,9.758766174E0
2.471998281E1,-2.394201756E-1,-8.044517636E-1,9.758766174E0
2.474000469E1,-2.585737705E-1,-7.948749661E-1,9.777919769E0
2.476500000E1,-2.394201756E-1,-7.757213712E-1,9.768342972E0
2.478999844E1,-2.681505978E-1,-7.852981687E-1,9.768342972E0
2.481499375E1,-2.777273953E-1,-8.140285611E-1,9.787496567E0
2.483999063E1,-2.681505978E-1,-7.948749661E-1,9.777919769E0
2.486498594E1,-2.777273953E-1,-7.948749661E-1,9.758766174E0
2.488998281E1,-2.968810201E-1,-7.948749661E-1,9.768342972E0
2.491497969E1,-2.585737705E-1,-7.948749661E-1,9.777919769E0
2.493500156E1,-2.585737705E-1,-8.236053586E-1,9.749189377E0
2.495999844E1,-2.585737705E-1,-8.236053586E-1,9.768342972E0
2.498499531E1,-2.394201756E-1,-8.140285611E-1,9.787496567E0
2.500999219E1,-2.777273953E-1,-8.044517636E-1,9.758766174E0
2.503498750E1,-2.681505978E-1,-8.236053586E-1,9.758766174E0
2.505998750E1,-2.777273953E-1,-8.140285611E-1,9.768342972E0
2.508497969E1,-2.777273953E-1,-8.140285611E-1,9.758766174E0
2.510500313E1,-2.681505978E-1,-8.044517636E-1,9.768342972E0
2.513000000E1,-2.202665508E-1,-7.852981687E-1,9.797073364E0
2.515499531E1,-2.011129409E-1,-7.852981687E-1,9.758766174E0
2.517999219E1,-2.298433632E-1,-8.140285611E-1,9.749189377E0
2.520498906E1,-1.915361285E-1,-8.236053586E-1,9.806650162E0
2.522998594E1,-2.298433632E-1,-7.852981687E-1,9.797073364E0
2.525498125E1,-2.394201756E-1,-7.852981687E-1,9.777919769E0
2.527500312E1,-2.394201756E-1,-8.044517636E-1,9.777919769E0
2.530003281E1,-2.298433632E-1,-8.236053586E-1,9.768342972E0
2.532499688E1,-2.489969730E-1,-8.044517636E-1,9.749189377E0
2.534999375E1,-2.585737705E-1,-8.236053586E-1,9.758766174E0
2.537498906E1,-2.873041928E-1,-7.948749661E-1,9.768342972E0
2.539998750E1,-3.064578176E-1,-8.044517636E-1,9.777919769E0
2.542498281E1,-2.777273953E-1,-7.852981687E-1,9.768342972E0
2.544997969E1,-2.777273953E-1,-7.757213712E-1,9.758766174E0
2.547000156E1,-2.777273953E-1,-7.948749661E-1,9.768342972E0
2.549499688E1,-2.394201756E-1,-7.948749661E-1,9.787496567E0
2.551999531E1,-2.489969730E-1,-8.044517636E-1,9.749189377E0
2.554499062E1,-2.394201756E-1,-8.236053586E-1,9.758766174E0
2.556998750E1,-2.585737705E-1,-8.140285611E-1,9.768342972E0
2.559498281E1,-2.681505978E-1,-8.236053586E-1,9.777919769E0
2.561997969E1,-2.489969730E-1,-8.236053586E-1,9.768342972E0
2.564000313E1,-2.202665508E-1,-8.331822157E-1,9.787496567E0
2.566499844E1,-2.298433632E-1,-7.948749661E-1,9.777919769E0
2.568999688E1,-2.489969730E-1,-7.661445141E-1,9.777919769E0
2.571499219E1,-2.394201756E-1,-8.044517636E-1,9.777919769E0
2.573998906E1,-2.681505978E-1,-8.044517636E-1,9.768342972E0
2.576498438E1,-2.585737705E-1,-7.852981687E-1,9.758766174E0
2.578998281E1,-2.873041928E-1,-8.044517636E-1,9.768342972E0
2.581000469E1,-2.298433632E-1,-8.140285611E-1,9.739612579E0
2.583500000E1,-2.585737705E-1,-8.236053586E-1,9.758766174E0
2.585999688E1,-1.819593310E-1,-8.236053586E-1,9.777919769E0
2.588499375E1,-2.106897533E-1,-8.140285611E-1,9.777919769E0
2.590999063E1,-2.298433632E-1,-8.044517636E-1,9.749189377E0
2.593498594E1,-2.489969730E-1,-8.044517636E-1,9.777919769E0
2.595998281E1,-2.489969730E-1,-8.236053586E-1,9.758766174E0
2.598000469E1,-2.298433632E-1,-8.236053586E-1,9.758766174E0
2.600500156E1,-2.298433632E-1,-8.140285611E-1,9.739612579E0
2.602999844E1,-2.585737705E-1,-8.236053586E-1,9.787496567E0
2.605499375E1,-2.394201756E-1,-8.044517636E-1,9.787496567E0
2.607999062E1,-2.681505978E-1,-8.140285611E-1,9.777919769E0
2.610498594E1,-2.873041928E-1,-7.852981687E-1,9.806650162E0
2.612998438E1,-2.681505978E-1,-7.469909191E-1,9.758766174E0
2.615497969E1,-2.489969730E-1,-8.044517636E-1,9.739612579E0
2.617500156E1,-2.585737705E-1,-8.523358107E-1,9.777919769E0
2.620000000E1,-2.394201756E-1,-8.331822157E-1,9.816226959E0
2.622499531E1,-2.394201756E-1,-7.852981687E-1,9.777919769E0
2.624999219E1,-2.202665508E-1,-7.948749661E-1,9.787496567E0
2.627498750E1,-2.968810201E-1,-8.523358107E-1,9.768342972E0
2.629998438E1,-2.585737705E-1,-8.140285611E-1,9.768342972E0
2.632498125E1,-2.777273953E-1,-7.948749661E-1,9.739612579E0
2.634500312E1,-2.777273953E-1,-7.852981687E-1,9.758766174E0
2.637000000E1,-2.585737705E-1,-7.948749661E-1,9.768342972E0
2.639499688E1,-2.489969730E-1,-7.661445141E-1,9.777919769E0
2.641999375E1,-2.489969730E-1,-7.757213712E-1,9.749189377E0
2.644498906E1,-2.298433632E-1,-7.852981687E-1,9.768342972E0
2.646998594E1,-2.106897533E-1,-8.044517636E-1,9.758766174E0
2.649498125E1,-1.723825186E-1,-7.852981687E-1,9.777919769E0
2.651500469E1,-1.915361285E-1,-8.044517636E-1,9.768342972E0
2.654000156E1,-1.628057212E-1,-8.523358107E-1,9.777919769E0
2.656499688E1,-1.723825186E-1,-8.331822157E-1,9.787496567E0
2.658999531E1,-1.915361285E-1,-8.331822157E-1,9.768342972E0
2.661499062E1,-2.298433632E-1,-8.331822157E-1,9.758766174E0
2.663998750E1,-2.489969730E-1,-7.948749661E-1,9.777919769E0
2.666498281E1,-2.298433632E-1,-8.140285611E-1,9.758766174E0
2.668997969E1,-2.489969730E-1,-7.948749661E-1,9.739612579E0
2.671000156E1,-2.968810201E-1,-7.948749661E-1,9.768342972E0
2.673499844E1,-3.447650373E-1,-7.661445141E-1,9.787496567E0
2.675999531E1,-2.968810201E-1,-7.469909191E-1,9.758766174E0
2.678499219E1,-3.064578176E-1,-7.757213712E-1,9.768342972E0
2.680998750E1,-2.968810201E-1,-7.948749661E-1,9.749189377E0
2.683498438E1,-2.681505978E-1,-7.852981687E-1,9.768342972E0
2.685998750E1,-2.394201756E-1,-8.140285611E-1,9.758766174E0
2.688000312E1,-2.394201756E-1,-8.044517636E-1,9.787496567E0
2.690500000E1,-2.585737705E-1,-7.661445141E-1,9.768342972E0
2.692999688E1,-2.202665508E-1,-8.236053586E-1,9.730035782E0
2.695499219E1,-2.202665508E-1,-8.427590132E-1,9.768342972E0
2.697998906E1,-2.106897533E-1,-8.619126081E-1,9.777919769E0
2.700498594E1,-1.915361285E-1,-8.619126081E-1,9.768342972E0
2.702998281E1,-2.011129409E-1,-8.331822157E-1,9.758766174E0
2.705000469E1,-2.011129409E-1,-7.948749661E-1,9.777919769E0
2.707500000E1,-2.585737705E-1,-7.948749661E-1,9.768342972E0
2.710002656E1,-2.585737705E-1,-7.469909191E-1,9.768342972E0
2.712499375E1,-2.681505978E-1,-7.374141216E-1,9.739612579E0
2.714999062E1,-2.489969730E-1,-7.948749661E-1,9.758766174E0
2.717498594E1,-2.298433632E-1,-7.565677166E-1,9.768342972E0
2.719998281E1,-2.394201756E-1,-7.661445141E-1,9.730035782E0
2.722497969E1,-2.394201756E-1,-8.427590132E-1,9.730035782E0
2.724500156E1,-2.681505978E-1,-8.714894056E-1,9.816226959E0
2.726999844E1,-2.011129409E-1,-8.427590132E-1,9.777919769E0
2.729499531E1,-2.011129409E-1,-8.140285611E-1,9.749189377E0
2.731999219E1,-2.106897533E-1,-8.331822157E-1,9.777919769E0
2.734001563E1,-2.585737705E-1,-8.140285611E-1,9.739612579E0
2.736497812E1,-2.489969730E-1,-8.044517636E-1,9.777919769E0
2.738500156E1,-2.585737705E-1,-7.852981687E-1,9.758766174E0
2.740999688E1,-2.394201756E-1,-8.140285611E-1,9.787496567E0
2.743499375E1,-2.394201756E-1,-7.852981687E-1,9.758766174E0
2.745999375E1,-2.298433632E-1,-7.661445141E-1,9.768342972E0
2.748498594E1,-2.394201756E-1,-7.661445141E-1,9.758766174E0
2.750998438E1,-2.681505978E-1,-7.757213712E-1,9.787496567E0
2.753497969E1,-2.968810201E-1,-7.565677166E-1,9.768342972E0
2.755500156E1,-2.777273953E-1,-7.757213712E-1,9.777919769E0
2.758001250E1,-2.681505978E-1,-8.044517636E-1,9.768342972E0
2.760499375E1,-2.394201756E-1,-8.331822157E-1,9.749189377E0
2.762999062E1,-2.394201756E-1,-8.523358107E-1,9.787496567E0
2.765498750E1,-2.202665508E-1,-8.523358107E-1,9.739612579E0
2.767998438E1,-2.394201756E-1,-8.331822157E-1,9.777919769E0
2.770497969E1,-2.298433632E-1,-8.140285611E-1,9.758766174E0
2.772500312E1,-2.585737705E-1,-8.236053586E-1,9.730035782E0
2.775000000E1,-3.064578176E-1,-8.044517636E-1,9.768342972E0
2.777499531E1,-2.777273953E-1,-8.044517636E-1,9.777919769E0
2.779999219E1,-2.777273953E-1,-7.948749661E-1,9.768342972E0
2.782001094E1,-2.681505978E-1,-7.565677166E-1,9.749189377E0
2.784497969E1,-2.681505978E-1,-7.852981687E-1,9.758766174E0
2.786500000E1,-2.873041928E-1,-7.661445141E-1,9.749189377E0
2.788999844E1,-2.394201756E-1,-7.661445141E-1,9.777919769E0
2.791499531E1,-2.394201756E-1,-7.565677166E-1,9.758766174E0
2.793999062E1,-2.106897533E-1,-8.044517636E-1,9.768342972E0
2.796498750E1,-2.106897533E-1,-8.140285611E-1,9.787496567E0
2.798998438E1,-2.298433632E-1,-8.140285611E-1,9.787496567E0
2.801497969E1,-2.202665508E-1,-8.140285611E-1,9.739612579E0
2.803500313E1,-2.489969730E-1,-8.331822157E-1,9.749189377E0
2.805999844E1,-2.394201756E-1,-8.236053586E-1,9.768342972E0
2.808499531E1,-2.298433632E-1,-8.236053586E-1,9.768342972E0
2.810999219E1,-2.585737705E-1,-7.852981687E-1,9.797073364E0
2.813498906E1,-2.873041928E-1,-7.852981687E-1,9.749189377E0
2.815998594E1,-2.968810201E-1,-7.948749661E-1,9.720458984E0
2.818498125E1,-2.968810201E-1,-8.331822157E-1,9.797073364E0
2.820500312E1,-2.873041928E-1,-8.044517636E-1,9.806650162E0
2.823000156E1,-2.202665508E-1,-7.278373241E-1,9.806650162E0
2.825499688E1,-2.681505978E-1,-7.757213712E-1,9.749189377E0
2.827999375E1,-2.681505978E-1,-8.044517636E-1,9.758766174E0
2.830002500E1,-2.873041928E-1,-8.331822157E-1,9.768342972E0
2.832498125E1,-2.298433632E-1,-8.236053586E-1,9.749189377E0
2.834500312E1,-2.585737705E-1,-8.044517636E-1,9.749189377E0
2.837000000E1,-2.489969730E-1,-8.140285611E-1,9.768342972E0
2.839499531E1,-2.202665508E-1,-8.427590132E-1,9.768342972E0
2.841999375E1,-1.819593310E-1,-7.852981687E-1,9.777919769E0
2.844498906E1,-1.532289088E-1,-8.044517636E-1,9.768342972E0
2.846998594E1,-1.628057212E-1,-8.236053586E-1,9.797073364E0
2.849498125E1,-2.489969730E-1,-7.661445141E-1,9.777919769E0
2.851500313E1,-2.106897533E-1,-7.852981687E-1,9.797073364E0
2.854004531E1,-2.202665508E-1,-8.044517636E-1,9.768342972E0
2.856499688E1,-2.777273953E-1,-8.140285611E-1,9.787496567E0
2.858999375E1,-2.777273953E-1,-8.236053586E-1,9.797073364E0
2.861498906E1,-2.489969730E-1,-8.331822157E-1,9.758766174E0
2.863998594E1,-2.585737705E-1,-8.236053586E-1,9.777919769E0
2.866498281E1,-2.394201756E-1,-7.757213712E-1,9.758766174E0
2.868997969E1,-2.681505978E-1,-7.661445141E-1,9.758766174E0
2.871000312E1,-2.777273953E-1,-8.044517636E-1,9.749189377E0
2.873499844E1,-2.681505978E-1,-8.044517636E-1,9.749189377E0
2.875999531E1,-2.681505978E-1,-8.236053586E-1,9.768342972E0
2.878499063E1,-3.064578176E-1,-7.948749661E-1,9.758766174E0
2.880998750E1,-2.968810201E-1,-8.044517636E-1,9.758766174E0
2.883498438E1,-2.777273953E-1,-8.140285611E-1,9.758766174E0
2.885998125E1,-2.777273953E-1,-8.140285611E-1,9.739612579E0
2.888000312E1,-2.394201756E-1,-8.236053586E-1,9.758766174E0
2.890003281E1,-2.585737705E-1,-8.140285611E-1,9.777919769E0
2.892498906E1,-2.202665508E-1,-8.044517636E-1,9.768342972E0
2.894998750E1,-2.202665508E-1,-8.140285611E-1,9.749189377E0
2.897498281E1,-2.394201756E-1,-8.140285611E-1,9.777919769E0
2.899997969E1,-2.489969730E-1,-8.140285611E-1,9.777919769E0
2.902000625E1,-2.777273953E-1,-8.044517636E-1,9.777919769E0
2.904499844E1,-2.394201756E-1,-7.757213712E-1,9.787496567E0
2.906999531E1,-2.011129409E-1,-8.044517636E-1,9.768342972E0
2.909499062E1,-2.202665508E-1,-7.948749661E-1,9.739612579E0
2.911998750E1,-1.915361285E-1,-8.236053586E-1,9.797073364E0
2.914498438E1,-1.723825186E-1,-8.140285611E-1,9.797073364E0
2.916998125E1,-1.915361285E-1,-7.948749661E-1,9.777919769E0
2.919000312E1,-2.011129409E-1,-8.044517636E-1,9.787496567E0
2.921499844E1,-2.681505978E-1,-8.140285611E-1,9.777919769E0
2.923999688E1,-3.064578176E-1,-8.044517636E-1,9.777919769E0
2.926499219E1,-2.777273953E-1,-7.948749661E-1,9.749189377E0
2.928998906E1,-3.351882398E-1,-8.044517636E-1,9.787496567E0
2.931498438E1,-3.639186621E-1,-7.948749661E-1,9.777919769E0
2.933998281E1,-2.968810201E-1,-7.661445141E-1,9.797073364E0
2.936000469E1,-2.489969730E-1,-7.661445141E-1,9.777919769E0
2.938500000E1,-2.298433632E-1,-7.661445141E-1,9.749189377E0
2.940999688E1,-2.298433632E-1,-7.852981687E-1,9.797073364E0
2.943499375E1,-2.298433632E-1,-8.331822157E-1,9.816226959E0
2.945999063E1,-2.202665508E-1,-8.236053586E-1,9.806650162E0
2.948498594E1,-1.915361285E-1,-8.140285611E-1,9.787496567E0
2.950998281E1,-2.394201756E-1,-8.236053586E-1,9.787496567E0
2.953497969E1,-2.298433632E-1,-8.140285611E-1,9.758766174E0
2.955500156E1,-2.106897533E-1,-8.331822157E-1,9.816226959E0
2.957999844E1,-1.915361285E-1,-8.236053586E-1,9.768342972E0
2.960499531E1,-2.394201756E-1,-7.757213712E-1,9.768342972E0
2.962999062E1,-2.394201756E-1,-8.044517636E-1,9.777919769E0
2.965498750E1,-2.298433632E-1,-7.948749661E-1,9.787496567E0
2.967998438E1,-2.489969730E-1,-7.948749661E-1,9.787496567E0
2.970497969E1,-2.681505978E-1,-7.757213712E-1,9.758766174E0
2.972500156E1,-2.681505978E-1,-7.948749661E-1,9.777919769E0
2.975000000E1,-2.298433632E-1,-7.852981687E-1,9.787496567E0
2.977499531E1,-2.394201756E-1,-8.140285611E-1,9.768342972E0
2.979999219E1,-3.351882398E-1,-8.523358107E-1,9.768342972E0
2.982498750E1,-3.351882398E-1,-8.140285611E-1,9.825803757E0
2.984998594E1,-2.777273953E-1,-7.948749661E-1,9.787496567E0
2.987498125E1,-2.489969730E-1,-7.757213712E-1,9.739612579E0
2.989500313E1,-2.489969730E-1,-7.661445141E-1,9.749189377E0
2.992000156E1,-2.681505978E-1,-8.236053586E-1,9.777919769E0
2.994499688E1,-2.681505978E-1,-8.140285611E-1,9.797073364E0
2.996999375E1,-2.681505978E-1,-8.044517636E-1,9.758766174E0
2.999498906E1,-2.681505978E-1,-7.948749661E-1,9.768342972E0
3.001998594E1,-2.489969730E-1,-8.044517636E-1,9.758766174E0
3.004498281E1,-2.681505978E-1,-8.427590132E-1,9.787496567E0
3.006500469E1,-2.585737705E-1,-8.236053586E-1,9.777919769E0
3.009000156E1,-2.298433632E-1,-7.948749661E-1,9.787496567E0
3.011499688E1,-2.202665508E-1,-8.044517636E-1,9.816226959E0
3.013999375E1,-1.819593310E-1,-8.140285611E-1,9.777919769E0
3.016499062E1,-1.723825186E-1,-7.948749661E-1,9.777919769E0
3.018998750E1,-2.011129409E-1,-7.757213712E-1,9.749189377E0
3.021498281E1,-2.489969730E-1,-7.661445141E-1,9.749189377E0
3.023997969E1,-2.394201756E-1,-8.044517636E-1,9.758766174E0
3.026000312E1,-2.777273953E-1,-8.044517636E-1,9.768342972E0
3.028499844E1,-2.777273953E-1,-7.757213712E-1,9.787496567E0
3.030999531E1,-2.489969730E-1,-7.948749661E-1,9.730035782E0
3.033499219E1,-2.681505978E-1,-8.427590132E-1,9.749189377E0
3.035999063E1,-2.681505978E-1,-8.427590132E-1,9.806650162E0
3.038498438E1,-2.681505978E-1,-8.427590132E-1,9.758766174E0
3.040998125E1,-2.585737705E-1,-8.140285611E-1,9.787496567E0
3.043000313E1,-2.585737705E-1,-8.140285611E-1,9.730035782E0
3.045500000E1,-2.681505978E-1,-8.044517636E-1,9.749189377E0
3.047999688E1,-2.873041928E-1,-7.948749661E-1,9.797073364E0
3.050499219E1,-2.777273953E-1,-7.948749661E-1,9.787496567E0
3.052998906E1,-2.681505978E-1,-7.661445141E-1,9.749189377E0
3.055498594E1,-2.585737705E-1,-7.948749661E-1,9.768342972E0
3.057998281E1,-2.298433632E-1,-8.044517636E-1,9.758766174E0
3.060000469E1,-2.298433632E-1,-8.140285611E-1,9.768342972E0
3.062500000E1,-1.723825186E-1,-8.331822157E-1,9.749189377E0
3.064999688E1,-1.819593310E-1,-8.427590132E-1,9.749189377E0
3.067499375E1,-1.340752989E-1,-8.427590132E-1,9.787496567E0
3.069999062E1,-2.489969730E-1,-8.236053586E-1,9.787496567E0
3.072498594E1,-2.298433632E-1,-8.236053586E-1,9.758766174E0
3.074998281E1,-2.202665508E-1,-8.523358107E-1,9.768342972E0
3.077497969E1,-2.681505978E-1,-8.236053586E-1,9.768342972E0
3.079500156E1,-2.394201756E-1,-7.757213712E-1,9.787496567E0
3.081999844E1,-2.968810201E-1,-7.374141216E-1,9.768342972E0
3.084499531E1,-3.256114423E-1,-7.565677166E-1,9.758766174E0
3.086999219E1,-3.064578176E-1,-7.661445141E-1,9.768342972E0
3.089498750E1,-3.160346150E-1,-8.044517636E-1,9.768342972E0
3.091998438E1,-2.777273953E-1,-8.140285611E-1,9.777919769E0
3.094497969E1,-2.681505978E-1,-8.331822157E-1,9.806650162E0
3.096500313E1,-2.202665508E-1,-8.427590132E-1,9.787496567E0
3.099000000E1,-1.915361285E-1,-8.140285611E-1,9.730035782E0
3.101499531E1,-2.394201756E-1,-8.619126081E-1,9.739612579E0
3.103999375E1,-2.298433632E-1,-8.619126081E-1,9.825803757E0
3.106498906E1,-2.202665508E-1,-8.044517636E-1,9.825803757E0
3.108998594E1,-1.819593310E-1,-7.661445141E-1,9.768342972E0
3.111498125E1,-1.819593310E-1,-8.236053586E-1,9.758766174E0
3.113500469E1,-2.489969730E-1,-8.331822157E-1,9.768342972E0
3.116000156E1,-2.489969730E-1,-8.140285611E-1,9.787496567E0
3.118499688E1,-2.681505978E-1,-7.757213712E-1,9.777919769E0
3.120999375E1,-2.489969730E-1,-8.044517636E-1,9.768342972E0
3.123498906E1,-2.873041928E-1,-8.044517636E-1,9.777919769E0
3.125998594E1,-2.681505978E-1,-8.044517636E-1,9.777919769E0
3.128498281E1,-2.585737705E-1,-8.044517636E-1,9.797073364E0
3.131000156E1,-2.777273953E-1,-7.948749661E-1,9.777919769E0
3.133000156E1,-2.777273953E-1,-8.044517636E-1,9.749189377E0
3.135499844E1,-2.585737705E-1,-8.044517636E-1,9.787496567E0
3.137999531E1,-2.585737705E-1,-8.140285611E-1,9.777919769E0
3.140499063E1,-2.585737705E-1,-8.523358107E-1,9.787496567E0
3.142998750E1,-2.777273953E-1,-8.523358107E-1,9.797073364E0
3.145498281E1,-2.585737705E-1,-8.236053586E-1,9.777919769E0
3.147998125E1,-2.011129409E-1,-8.140285611E-1,9.768342972E0
3.150000313E1,-2.585737705E-1,-8.140285611E-1,9.777919769E0
3.152499844E1,-2.489969730E-1,-7.852981687E-1,9.749189377E0
3.154999688E1,-2.489969730E-1,-7.852981687E-1,9.749189377E0
3.157499219E1,-2.968810201E-1,-7.757213712E-1,9.777919769E0
3.159998906E1,-2.585737705E-1,-7.948749661E-1,9.787496567E0
3.162498438E1,-2.489969730E-1,-7.948749661E-1,9.749189377E0
3.164998125E1,-2.394201756E-1,-8.140285611E-1,9.749189377E0
3.167000312E1,-1.723825186E-1,-8.140285611E-1,9.758766174E0
3.169500000E1,-2.489969730E-1,-7.948749661E-1,9.768342972E0
3.171999688E1,-2.298433632E-1,-7.852981687E-1,9.768342972E0
3.174499375E1,-2.394201756E-1,-8.427590132E-1,9.768342972E0
3.176998906E1,-2.681505978E-1,-8.236053586E-1,9.768342972E0
3.179498594E1,-2.777273953E-1,-8.140285611E-1,9.787496567E0
3.181998281E1,-2.489969730E-1,-8.331822157E-1,9.777919769E0
3.184000469E1,-2.489969730E-1,-8.140285611E-1,9.797073364E0
3.186500156E1,-2.298433632E-1,-7.852981687E-1,9.739612579E0
3.188999844E1,-2.681505978E-1,-8.140285611E-1,9.749189377E0
3.191499375E1,-2.681505978E-1,-8.427590132E-1,9.787496567E0
3.193999063E1,-2.489969730E-1,-8.140285611E-1,9.787496567E0
3.196498750E1,-2.394201756E-1,-7.374141216E-1,9.768342972E0
3.198998438E1,-2.681505978E-1,-7.852981687E-1,9.739612579E0
3.201497969E1,-2.585737705E-1,-8.236053586E-1,9.768342972E0
3.203500312E1,-2.298433632E-1,-8.140285611E-1,9.768342972E0
3.206000000E1,-2.489969730E-1,-8.236053586E-1,9.768342972E0
3.208499531E1,-2.106897533E-1,-8.236053586E-1,9.768342972E0
3.210999219E1,-2.011129409E-1,-8.044517636E-1,9.758766174E0
3.213498750E1,-2.394201756E-1,-7.948749661E-1,9.768342972E0
3.215998438E1,-2.585737705E-1,-7.948749661E-1,9.758766174E0
3.218498125E1,-2.585737705E-1,-8.236053586E-1,9.768342972E0
3.220500313E1,-2.394201756E-1,-8.236053586E-1,9.787496567E0
3.223000000E1,-2.585737705E-1,-7.852981687E-1,9.787496567E0
3.225499688E1,-2.394201756E-1,-7.757213712E-1,9.749189377E0
3.227999375E1,-2.202665508E-1,-7.948749661E-1,9.749189377E0
3.230498906E1,-2.873041928E-1,-8.236053586E-1,9.768342972E0
3.232998594E1,-2.394201756E-1,-7.948749661E-1,9.758766174E0
3.235498125E1,-2.777273953E-1,-8.331822157E-1,9.768342972E0
3.237500469E1,-2.489969730E-1,-8.140285611E-1,9.777919769E0
3.240000156E1,-2.681505978E-1,-8.044517636E-1,9.787496567E0
3.242499688E1,-2.394201756E-1,-8.140285611E-1,9.739612579E0
3.244999531E1,-2.489969730E-1,-8.236053586E-1,9.758766174E0
3.247499063E1,-1.819593310E-1,-8.523358107E-1,9.806650162E0
3.250001250E1,-2.106897533E-1,-8.236053586E-1,9.787496567E0
3.252498281E1,-2.202665508E-1,-7.948749661E-1,9.777919769E0
3.254997969E1,-2.298433632E-1,-7.948749661E-1,9.758766174E0
3.257000312E1,-2.202665508E-1,-7.852981687E-1,9.768342972E0
3.259499844E1,-2.106897533E-1,-7.852981687E-1,9.768342972E0
3.262000156E1,-2.202665508E-1,-7.565677166E-1,9.768342972E0
3.264499063E1,-2.394201756E-1,-7.661445141E-1,9.758766174E0
3.266998750E1,-2.394201756E-1,-7.757213712E-1,9.777919769E0
3.269498438E1,-2.489969730E-1,-8.236053586E-1,9.758766174E0
3.271998125E1,-2.681505978E-1,-8.331822157E-1,9.758766174E0
3.274000625E1,-3.064578176E-1,-8.523358107E-1,9.749189377E0
3.276500000E1,-2.681505978E-1,-8.714894056E-1,9.777919769E0
3.278999688E1,-2.585737705E-1,-8.619126081E-1,9.768342972E0
3.281499219E1,-2.777273953E-1,-8.810662031E-1,9.758766174E0
3.283998906E1,-2.777273953E-1,-8.331822157E-1,9.816226959E0
3.286498438E1,-2.394201756E-1,-7.661445141E-1,9.787496567E0
3.288998281E1,-2.777273953E-1,-7.278373241E-1,9.768342972E0
3.291000469E1,-2.681505978E-1,-7.565677166E-1,9.758766174E0
3.293500000E1,-2.298433632E-1,-7.661445141E-1,9.768342972E0
3.295999844E1,-2.394201756E-1,-7.469909191E-1,9.768342972E0
3.298499375E1,-2.202665508E-1,-7.661445141E-1,9.758766174E0
3.300999062E1,-2.298433632E-1,-7.948749661E-1,9.758766174E0
3.303498750E1,-2.298433632E-1,-8.140285611E-1,9.749189377E0
3.305998281E1,-2.011129409E-1,-8.140285611E-1,9.758766174E0
3.308497969E1,-2.202665508E-1,-8.427590132E-1,9.749189377E0
3.310500156E1,-2.298433632E-1,-8.810662031E-1,9.758766174E0
3.312999844E1,-1.915361285E-1,-8.714894056E-1,9.797073364E0
3.315499375E1,-2.585737705E-1,-8.140285611E-1,9.758766174E0
3.317999219E1,-2.777273953E-1,-8.044517636E-1,9.739612579E0
3.320498750E1,-2.873041928E-1,-7.852981687E-1,9.768342972E0
3.322998438E1,-2.968810201E-1,-7.948749661E-1,9.749189377E0
3.325497969E1,-2.777273953E-1,-7.661445141E-1,9.797073364E0
3.327500313E1,-2.873041928E-1,-7.469909191E-1,9.787496567E0
3.330000000E1,-2.394201756E-1,-7.661445141E-1,9.758766174E0
3.332499531E1,-2.011129409E-1,-7.757213712E-1,9.749189377E0
3.334999219E1,-2.011129409E-1,-7.757213712E-1,9.768342972E0
3.337498750E1,-2.298433632E-1,-8.236053586E-1,9.777919769E0
3.339998594E1,-2.394201756E-1,-8.523358107E-1,9.787496567E0
3.342498125E1,-2.202665508E-1,-8.523358107E-1,9.758766174E0
3.344500312E1,-1.819593310E-1,-8.523358107E-1,9.758766174E0
3.347000156E1,-2.202665508E-1,-8.331822157E-1,9.739612579E0
3.349499688E1,-2.298433632E-1,-8.236053586E-1,9.777919769E0
3.351999375E1,-2.298433632E-1,-7.948749661E-1,9.777919769E0
3.354498906E1,-2.202665508E-1,-7.852981687E-1,9.749189377E0
3.356998594E1,-2.968810201E-1,-7.661445141E-1,9.749189377E0
3.359498281E1,-2.873041928E-1,-7.757213712E-1,9.777919769E0
3.361500469E1,-2.777273953E-1,-7.852981687E-1,9.749189377E0
3.364000156E1,-2.968810201E-1,-7.757213712E-1,9.777919769E0
3.366499844E1,-3.160346150E-1,-7.757213712E-1,9.758766174E0
3.368999531E1,-2.777273953E-1,-8.044517636E-1,9.758766174E0
3.371499062E1,-2.298433632E-1,-7.948749661E-1,9.768342972E0
3.373998750E1,-2.394201756E-1,-7.948749661E-1,9.768342972E0
3.376498281E1,-2.585737705E-1,-8.236053586E-1,9.739612579E0
3.378998125E1,-2.489969730E-1,-8.619126081E-1,9.797073364E0
3.381000312E1,-2.011129409E-1,-8.331822157E-1,9.816226959E0
3.383499844E1,-2.106897533E-1,-8.140285611E-1,9.797073364E0
3.385999531E1,-2.298433632E-1,-8.044517636E-1,9.768342972E0
3.388499219E1,-2.489969730E-1,-8.427590132E-1,9.749189377E0
3.390998906E1,-2.681505978E-1,-8.140285611E-1,9.777919769E0
3.393498438E1,-2.777273953E-1,-7.948749661E-1,9.768342972E0
3.395998125E1,-2.681505978E-1,-7.757213712E-1,9.797073364E0
3.398000312E1,-2.394201756E-1,-7.565677166E-1,9.797073364E0
3.400500000E1,-2.585737705E-1,-7.469909191E-1,9.768342972E0
3.402999688E1,-2.585737705E-1,-7.374141216E-1,9.758766174E0
3.405499219E1,-2.585737705E-1,-8.140285611E-1,9.777919769E0
3.407998906E1,-2.585737705E-1,-7.852981687E-1,9.806650162E0
3.410498594E1,-2.489969730E-1,-8.044517636E-1,9.768342972E0
3.412998281E1,-2.585737705E-1,-8.236053586E-1,9.768342972E0
3.415000469E1,-2.394201756E-1,-8.140285611E-1,9.777919769E0
3.417500156E1,-2.298433632E-1,-8.331822157E-1,9.777919769E0
3.419999844E1,-2.011129409E-1,-8.331822157E-1,9.777919769E0
3.422499375E1,-2.585737705E-1,-8.331822157E-1,9.768342972E0
3.424999062E1,-2.298433632E-1,-8.236053586E-1,9.797073364E0
3.427498594E1,-2.585737705E-1,-8.044517636E-1,9.768342972E0
3.430002969E1,-2.489969730E-1,-8.236053586E-1,9.758766174E0
3.432497969E1,-2.298433632E-1,-8.236053586E-1,9.797073364E0
3.434504531E1,-2.489969730E-1,-8.044517636E-1,9.749189377E0
3.437000000E1,-2.585737705E-1,-7.852981687E-1,9.758766174E0
3.439499531E1,-2.777273953E-1,-7.852981687E-1,9.768342972E0
3.441999219E1,-2.873041928E-1,-7.852981687E-1,9.777919769E0
3.444498750E1,-2.777273953E-1,-7.852981687E-1,9.806650162E0
3.446998438E1,-2.968810201E-1,-7.757213712E-1,9.787496567E0
3.449498125E1,-2.968810201E-1,-7.757213712E-1,9.768342972E0
3.451500312E1,-2.298433632E-1,-7.757213712E-1,9.797073364E0
3.454000000E1,-1.628057212E-1,-7.948749661E-1,9.777919769E0
3.456499531E1,-1.819593310E-1,-8.236053586E-1,9.739612579E0
3.458999375E1,-2.106897533E-1,-8.140285611E-1,9.758766174E0
3.461498906E1,-2.777273953E-1,-8.236053586E-1,9.787496567E0
3.463998594E1,-3.064578176E-1,-8.619126081E-1,9.777919769E0
3.466498125E1,-2.968810201E-1,-8.523358107E-1,9.806650162E0
3.468500469E1,-2.585737705E-1,-8.427590132E-1,9.758766174E0
3.471000156E1,-2.298433632E-1,-7.948749661E-1,9.749189377E0
3.473499688E1,-2.873041928E-1,-8.140285611E-1,9.749189377E0
3.475999375E1,-2.298433632E-1,-8.140285611E-1,9.806650162E0
3.478498906E1,-2.489969730E-1,-7.374141216E-1,9.797073364E0
3.480998750E1,-2.298433632E-1,-6.991068721E-1,9.758766174E0
3.483498281E1,-2.681505978E-1,-7.661445141E-1,9.768342972E0
3.485997969E1,-2.777273953E-1,-8.044517636E-1,9.806650162E0
3.488000156E1,-2.968810201E-1,-7.852981687E-1,9.777919769E0
3.490499844E1,-3.064578176E-1,-7.757213712E-1,9.749189377E0
3.492999531E1,-2.489969730E-1,-7.852981687E-1,9.758766174E0
3.495499219E1,-2.394201756E-1,-8.140285611E-1,9.787496567E0
3.497998750E1,-2.489969730E-1,-8.331822157E-1,9.797073364E0
3.500498438E1,-2.202665508E-1,-8.810662031E-1,9.758766174E0
3.502998125E1,-1.532289088E-1,-8.619126081E-1,9.758766174E0
3.505000312E1,-1.436520964E-1,-8.523358107E-1,9.777919769E0
3.507499844E1,-2.011129409E-1,-8.044517636E-1,9.797073364E0
3.509999688E1,-2.298433632E-1,-8.236053586E-1,9.787496567E0
3.512499219E1,-2.777273953E-1,-8.044517636E-1,9.797073364E0
3.514998906E1,-3.351882398E-1,-7.565677166E-1,9.777919769E0
3.517498438E1,-3.160346150E-1,-7.278373241E-1,9.758766174E0
3.519998125E1,-2.873041928E-1,-7.374141216E-1,9.768342972E0
3.522000469E1,-2.585737705E-1,-7.757213712E-1,9.768342972E0
3.524500000E1,-2.585737705E-1,-7.374141216E-1,9.758766174E0
3.526999688E1,-2.968810201E-1,-7.852981687E-1,9.739612579E0
3.529499375E1,-2.873041928E-1,-8.140285611E-1,9.768342972E0
3.531999062E1,-2.873041928E-1,-8.427590132E-1,9.758766174E0
3.534498594E1,-2.681505978E-1,-8.810662031E-1,9.768342972E0
3.536998281E1,-2.202665508E-1,-8.619126081E-1,9.777919769E0
3.539497812E1,-2.394201756E-1,-8.619126081E-1,9.749189377E0
3.541500156E1,-2.394201756E-1,-8.331822157E-1,9.777919769E0
3.543999844E1,-2.489969730E-1,-7.852981687E-1,9.797073364E0
3.546499531E1,-2.489969730E-1,-7.757213712E-1,9.749189377E0
3.548999219E1,-2.585737705E-1,-7.661445141E-1,9.730035782E0
3.551498750E1,-2.298433632E-1,-8.044517636E-1,9.777919769E0
3.553998438E1,-2.585737705E-1,-8.331822157E-1,9.787496567E0
3.556497969E1,-1.819593310E-1,-8.140285611E-1,9.797073364E0
3.558500312E1,-2.106897533E-1,-8.140285611E-1,9.787496567E0
3.561000000E1,-2.394201756E-1,-8.331822157E-1,9.730035782E0
3.563499531E1,-2.298433632E-1,-8.140285611E-1,9.777919769E0
3.565999219E1,-2.106897533E-1,-7.661445141E-1,9.816226959E0
3.568498750E1,-1.819593310E-1,-7.278373241E-1,9.749189377E0
3.570998594E1,-2.202665508E-1,-7.661445141E-1,9.739612579E0
3.573498125E1,-2.777273953E-1,-8.140285611E-1,9.787496567E0
3.575500312E1,-2.681505978E-1,-8.523358107E-1,9.777919769E0
3.578000000E1,-2.681505978E-1,-8.331822157E-1,9.749189377E0
3.580499688E1,-3.160346150E-1,-8.523358107E-1,9.758766174E0
3.582999375E1,-2.777273953E-1,-8.236053586E-1,9.777919769E0
3.585498906E1,-2.298433632E-1,-7.948749661E-1,9.768342972E0
3.587998594E1,-2.394201756E-1,-8.140285611E-1,9.777919769E0
3.590498281E1,-2.394201756E-1,-7.948749661E-1,9.797073364E0
3.592500469E1,-2.394201756E-1,-8.044517636E-1,9.768342972E0
3.595000156E1,-1.915361285E-1,-7.852981687E-1,9.777919769E0
3.597499688E1,-2.394201756E-1,-7.852981687E-1,9.806650162E0
3.599999375E1,-2.489969730E-1,-7.661445141E-1,9.777919769E0
3.602499062E1,-3.639186621E-1,-7.852981687E-1,9.787496567E0
3.604998750E1,-3.064578176E-1,-8.427590132E-1,9.806650162E0
3.607498281E1,-3.064578176E-1,-8.236053586E-1,9.730035782E0
3.609997969E1,-2.873041928E-1,-8.140285611E-1,9.749189377E0
3.612000313E1,-2.777273953E-1,-8.236053586E-1,9.777919769E0
3.614499844E1,-2.298433632E-1,-8.140285611E-1,9.777919769E0
3.616999531E1,-2.106897533E-1,-8.236053586E-1,9.777919769E0
3.619499219E1,-2.106897533E-1,-8.140285611E-1,9.739612579E0
3.621998906E1,-2.298433632E-1,-8.140285611E-1,9.787496567E0
3.624498438E1,-1.915361285E-1,-8.140285611E-1,9.806650162E0
3.626998125E1,-1.723825186E-1,-8.044517636E-1,9.777919769E0
3.629000469E1,-2.298433632E-1,-7.852981687E-1,9.768342972E0
3.631500000E1,-2.106897533E-1,-8.044517636E-1,9.758766174E0
3.633999531E1,-2.489969730E-1,-7.948749661E-1,9.777919769E0
3.636499219E1,-2.394201756E-1,-7.852981687E-1,9.758766174E0
3.638998906E1,-2.394201756E-1,-7.852981687E-1,9.768342972E0
3.641498594E1,-2.777273953E-1,-7.948749661E-1,9.787496567E0
3.643998750E1,-3.160346150E-1,-8.044517636E-1,9.787496567E0
3.646000469E1,-2.873041928E-1,-7.852981687E-1,9.777919769E0
3.648500156E1,-2.681505978E-1,-7.565677166E-1,9.768342972E0
3.650999688E1,-2.489969730E-1,-7.661445141E-1,9.768342972E0
3.653499375E1,-2.968810201E-1,-8.331822157E-1,9.787496567E0
3.655999063E1,-2.585737705E-1,-8.331822157E-1,9.806650162E0
3.657999531E1,-2.585737705E-1,-8.140285611E-1,9.797073364E0
3.660000312E1,-2.681505978E-1,-8.236053586E-1,9.806650162E0
3.662500000E1,-2.394201756E-1,-8.427590132E-1,9.758766174E0
3.664999688E1,-2.681505978E-1,-8.140285611E-1,9.787496567E0
3.667499219E1,-2.489969730E-1,-8.236053586E-1,9.768342972E0
3.669998906E1,-2.585737705E-1,-7.948749661E-1,9.797073364E0
3.672498594E1,-2.298433632E-1,-7.948749661E-1,9.758766174E0
3.674998281E1,-2.394201756E-1,-7.661445141E-1,9.787496567E0
3.677000469E1,-2.202665508E-1,-7.661445141E-1,9.797073364E0
3.679500000E1,-2.202665508E-1,-7.948749661E-1,9.758766174E0
3.681999844E1,-2.298433632E-1,-7.852981687E-1,9.825803757E0
3.684499375E1,-2.298433632E-1,-7.757213712E-1,9.787496567E0
3.686999062E1,-2.489969730E-1,-7.948749661E-1,9.797073364E0
3.689498594E1,-2.011129409E-1,-8.140285611E-1,9.777919769E0
3.691998438E1,-2.011129409E-1,-8.619126081E-1,9.758766174E0
3.694497969E1,-1.340752989E-1,-8.619126081E-1,9.787496567E0
3.696500156E1,-1.244984865E-1,-8.810662031E-1,9.806650162E0
3.698999844E1,-2.298433632E-1,-8.523358107E-1,9.787496567E0
3.701499531E1,-2.202665508E-1,-8.044517636E-1,9.768342972E0
3.703999219E1,-3.447650373E-1,-7.757213712E-1,9.777919769E0
3.706498750E1,-3.351882398E-1,-7.374141216E-1,9.806650162E0
3.708998438E1,-3.543418646E-1,-7.374141216E-1,9.787496567E0
3.711497969E1,-3.639186621E-1,-7.086837292E-1,9.749189377E0
3.713500313E1,-3.256114423E-1,-7.278373241E-1,9.758766174E0
3.716000000E1,-2.873041928E-1,-7.757213712E-1,9.777919769E0
3.718499531E1,-2.394201756E-1,-8.044517636E-1,9.768342972E0
3.720999219E1,-2.011129409E-1,-8.331822157E-1,9.749189377E0
3.723498906E1,-2.298433632E-1,-8.619126081E-1,9.787496567E0
3.725998594E1,-1.723825186E-1,-8.619126081E-1,9.787496567E0
3.728498281E1,-1.436520964E-1,-8.619126081E-1,9.787496567E0
3.730500469E1,-1.723825186E-1,-8.427590132E-1,9.797073364E0
3.733000156E1,-2.106897533E-1,-8.236053586E-1,9.797073364E0
3.735499688E1,-2.298433632E-1,-7.852981687E-1,9.787496567E0
3.737999375E1,-2.489969730E-1,-7.661445141E-1,9.787496567E0
3.740498906E1,-2.489969730E-1,-7.469909191E-1,9.777919769E0
3.742998750E1,-2.298433632E-1,-7.374141216E-1,9.768342972E0
3.745498281E1,-2.681505978E-1,-7.948749661E-1,9.768342972E0
3.747997969E1,-2.585737705E-1,-8.236053586E-1,9.797073364E0
3.750000156E1,-2.298433632E-1,-8.236053586E-1,9.806650162E0
3.752499844E1,-2.489969730E-1,-7.948749661E-1,9.787496567E0
3.754999531E1,-2.202665508E-1,-8.236053586E-1,9.777919769E0
3.757499063E1,-2.298433632E-1,-8.427590132E-1,9.758766174E0
3.759998750E1,-2.585737705E-1,-8.331822157E-1,9.768342972E0
3.762498438E1,-2.777273953E-1,-8.044517636E-1,9.768342972E0
3.764998125E1,-2.777273953E-1,-8.044517636E-1,9.739612579E0
3.767000312E1,-3.160346150E-1,-8.140285611E-1,9.797073364E0
3.769500000E1,-2.585737705E-1,-8.044517636E-1,9.777919769E0
3.771999531E1,-2.298433632E-1,-7.757213712E-1,9.739612579E0
3.774499219E1,-2.011129409E-1,-8.236053586E-1,9.777919769E0
3.776998906E1,-2.777273953E-1,-8.044517636E-1,9.825803757E0
3.779498438E1,-2.585737705E-1,-7.852981687E-1,9.768342972E0
3.781998281E1,-2.394201756E-1,-8.044517636E-1,9.749189377E0
3.784000469E1,-2.394201756E-1,-8.427590132E-1,9.797073364E0
3.786500000E1,-2.106897533E-1,-8.523358107E-1,9.787496567E0
3.788999688E1,-2.298433632E-1,-8.140285611E-1,9.797073364E0
3.791499375E1,-2.011129409E-1,-8.236053586E-1,9.768342972E0
3.793998906E1,-1.819593310E-1,-8.044517636E-1,9.787496567E0
3.796498594E1,-2.394201756E-1,-8.140285611E-1,9.787496567E0
3.798998281E1,-2.681505978E-1,-7.852981687E-1,9.797073364E0
3.801000625E1,-2.585737705E-1,-7.852981687E-1,9.777919769E0
3.803500156E1,-2.873041928E-1,-7.852981687E-1,9.768342972E0
3.805999844E1,-2.777273953E-1,-7.852981687E-1,9.768342972E0
3.808499375E1,-2.681505978E-1,-7.948749661E-1,9.768342972E0
3.810999219E1,-2.873041928E-1,-8.427590132E-1,9.797073364E0
3.813498750E1,-2.394201756E-1,-8.331822157E-1,9.777919769E0
3.815998438E1,-2.873041928E-1,-8.044517636E-1,9.777919769E0
3.818497969E1,-2.585737705E-1,-8.140285611E-1,9.768342972E0
3.820500313E1,-2.298433632E-1,-8.331822157E-1,9.768342972E0
3.823000000E1,-2.106897533E-1,-8.044517636E-1,9.777919769E0
3.825499531E1,-2.585737705E-1,-8.044517636E-1,9.797073364E0
3.827999219E1,-2.298433632E-1,-8.236053586E-1,9.787496567E0
3.830498750E1,-2.873041928E-1,-7.948749661E-1,9.777919769E0
3.832998594E1,-2.489969730E-1,-7.852981687E-1,9.768342972E0
3.835498125E1,-2.298433632E-1,-7.661445141E-1,9.777919769E0
3.837500312E1,-2.202665508E-1,-7.852981687E-1,9.758766174E0
3.840000000E1,-2.585737705E-1,-8.044517636E-1,9.777919769E0
3.842499688E1,-2.777273953E-1,-8.331822157E-1,9.844957352E0
3.844999375E1,-2.394201756E-1,-7.948749661E-1,9.835380554E0
3.847498906E1,-1.436520964E-1,-7.757213712E-1,9.768342972E0
3.850000781E1,-1.532289088E-1,-8.044517636E-1,9.758766174E0
3.852498125E1,-2.489969730E-1,-8.140285611E-1,9.758766174E0
3.854500469E1,-2.489969730E-1,-8.331822157E-1,9.777919769E0
3.857000156E1,-2.681505978E-1,-8.044517636E-1,9.806650162E0
3.859499688E1,-2.394201756E-1,-8.044517636E-1,9.749189377E0
3.861999688E1,-2.394201756E-1,-8.236053586E-1,9.777919769E0
3.864499063E1,-2.777273953E-1,-7.661445141E-1,9.749189377E0
3.866998750E1,-3.830722570E-1,-7.948749661E-1,9.730035782E0
3.869498281E1,-3.351882398E-1,-8.427590132E-1,9.777919769E0
3.871997969E1,-3.064578176E-1,-8.427590132E-1,9.777919769E0
3.874001250E1,-2.873041928E-1,-8.044517636E-1,9.768342972E0
3.876499844E1,-3.160346150E-1,-8.044517636E-1,9.777919769E0
3.878999531E1,-2.489969730E-1,-8.236053586E-1,9.768342972E0
3.881499219E1,-1.915361285E-1,-7.852981687E-1,9.768342972E0
3.883998906E1,-1.532289088E-1,-7.469909191E-1,9.768342972E0
3.886498438E1,-1.723825186E-1,-7.757213712E-1,9.816226959E0
3.888998125E1,-2.489969730E-1,-7.757213712E-1,9.806650162E0
3.891000312E1,-2.202665508E-1,-7.757213712E-1,9.787496567E0
3.893500000E1,-2.106897533E-1,-8.044517636E-1,9.758766174E0
3.895999688E1,-1.436520964E-1,-8.331822157E-1,9.797073364E0
3.898499219E1,-1.628057212E-1,-8.331822157E-1,9.768342972E0
3.900998906E1,-2.298433632E-1,-8.331822157E-1,9.787496567E0
3.903498594E1,-2.011129409E-1,-8.331822157E-1,9.777919769E0
3.905998281E1,-2.298433632E-1,-8.236053586E-1,9.768342972E0
3.908000469E1,-2.777273953E-1,-7.948749661E-1,9.739612579E0
3.910500000E1,-3.351882398E-1,-7.757213712E-1,9.777919769E0
3.912999688E1,-3.256114423E-1,-7.852981687E-1,9.797073364E0
3.915499375E1,-3.351882398E-1,-7.852981687E-1,9.777919769E0
3.917999062E1,-3.256114423E-1,-7.757213712E-1,9.777919769E0
3.920498594E1,-3.447650373E-1,-8.140285611E-1,9.787496567E0
3.922998281E1,-2.777273953E-1,-7.852981687E-1,9.797073364E0
3.925497969E1,-2.777273953E-1,-7.948749661E-1,9.758766174E0
3.927500156E1,-2.873041928E-1,-8.331822157E-1,9.777919769E0
3.929999844E1,-2.968810201E-1,-8.236053586E-1,9.797073364E0
3.932499375E1,-2.585737705E-1,-7.852981687E-1,9.787496567E0
3.934502812E1,-2.298433632E-1,-7.948749661E-1,9.787496567E0
3.936998281E1,-2.394201756E-1,-8.140285611E-1,9.768342972E0
3.939000469E1,-2.681505978E-1,-8.140285611E-1,9.768342972E0
3.941500156E1,-2.011129409E-1,-8.140285611E-1,9.768342972E0
3.943999844E1,-1.915361285E-1,-7.852981687E-1,9.758766174E0
3.946499375E1,-2.011129409E-1,-7.948749661E-1,9.787496567E0
3.948999063E1,-2.394201756E-1,-7.852981687E-1,9.787496567E0
3.951498594E1,-2.202665508E-1,-8.236053586E-1,9.768342972E0
3.953998438E1,-1.915361285E-1,-8.331822157E-1,9.768342972E0
3.956497969E1,-2.298433632E-1,-8.331822157E-1,9.777919769E0
3.958500156E1,-2.106897533E-1,-8.523358107E-1,9.787496567E0
3.960999844E1,-2.394201756E-1,-8.427590132E-1,9.768342972E0
3.963499531E1,-2.681505978E-1,-8.044517636E-1,9.787496567E0
3.965999219E1,-2.873041928E-1,-7.852981687E-1,9.777919769E0
3.968498750E1,-2.777273953E-1,-7.661445141E-1,9.749189377E0
3.970998438E1,-2.681505978E-1,-7.661445141E-1,9.768342972E0
3.973498125E1,-2.489969730E-1,-7.948749661E-1,9.787496567E0
3.975500312E1,-2.489969730E-1,-7.757213712E-1,9.777919769E0
3.978000000E1,-2.298433632E-1,-8.140285611E-1,9.797073364E0
3.980499531E1,-2.011129409E-1,-8.236053586E-1,9.777919769E0
3.982999219E1,-2.681505978E-1,-8.044517636E-1,9.787496567E0
3.985498906E1,-2.298433632E-1,-8.140285611E-1,9.787496567E0
3.987998438E1,-2.394201756E-1,-8.236053586E-1,9.749189377E0
3.990498125E1,-2.394201756E-1,-7.948749661E-1,9.758766174E0
3.992500312E1,-2.394201756E-1,-8.140285611E-1,9.749189377E0
3.995000156E1,-2.489969730E-1,-8.236053586E-1,9.787496567E0
3.997499688E1,-2.106897533E-1,-8.044517636E-1,9.768342972E0
3.999999375E1,-2.394201756E-1,-7.948749661E-1,9.758766174E0
4.002498906E1,-2.489969730E-1,-8.331822157E-1,9.797073364E0
4.004998594E1,-2.585737705E-1,-8.331822157E-1,9.787496567E0
4.007498281E1,-2.681505978E-1,-8.236053586E-1,9.758766174E0
4.009997969E1,-2.585737705E-1,-8.044517636E-1,9.768342972E0
4.012000156E1,-2.489969730E-1,-7.565677166E-1,9.777919769E0
4.014499844E1,-2.489969730E-1,-8.044517636E-1,9.739612579E0
4.016999531E1,-2.202665508E-1,-8.236053586E-1,9.758766174E0
4.019499062E1,-2.394201756E-1,-8.140285611E-1,9.797073364E0
4.021998750E1,-2.298433632E-1,-8.236053586E-1,9.816226959E0
4.024498438E1,-2.202665508E-1,-8.140285611E-1,9.797073364E0
4.026998125E1,-2.585737705E-1,-8.140285611E-1,9.768342972E0
4.029000313E1,-2.298433632E-1,-7.948749661E-1,9.768342972E0
4.031500000E1,-2.394201756E-1,-7.852981687E-1,9.768342972E0
4.033999531E1,-2.968810201E-1,-7.948749661E-1,9.816226959E0
4.036499219E1,-2.585737705E-1,-7.948749661E-1,9.777919769E0
4.038998906E1,-2.489969730E-1,-7.757213712E-1,9.758766174E0
4.041498438E1,-2.489969730E-1,-7.948749661E-1,9.768342972E0
4.043998125E1,-2.202665508E-1,-8.140285611E-1,9.758766174E0
4.046000469E1,-2.202665508E-1,-7.948749661E-1,9.777919769E0
4.048500000E1,-2.394201756E-1,-7.852981687E-1,9.797073364E0
4.050999688E1,-2.489969730E-1,-8.140285611E-1,9.787496567E0
4.053499375E1,-2.585737705E-1,-8.044517636E-1,9.777919769E0
4.055998906E1,-2.681505978E-1,-8.140285611E-1,9.758766174E0
4.058498594E1,-2.585737705E-1,-8.236053586E-1,9.749189377E0
4.060998281E1,-2.394201756E-1,-8.236053586E-1,9.777919769E0
4.063000469E1,-2.585737705E-1,-8.044517636E-1,9.768342972E0
4.065500156E1,-2.298433632E-1,-8.044517636E-1,9.749189377E0
4.067999844E1,-2.106897533E-1,-8.140285611E-1,9.768342972E0
4.070499375E1,-1.819593310E-1,-8.044517636E-1,9.777919769E0
4.072999219E1,-2.011129409E-1,-7.661445141E-1,9.758766174E0
4.075498750E1,-2.489969730E-1,-7.757213712E-1,9.768342972E0
4.077998438E1,-2.394201756E-1,-7.948749661E-1,9.777919769E0
4.080497969E1,-2.681505978E-1,-7.852981687E-1,9.787496567E0
4.082500156E1,-2.489969730E-1,-7.948749661E-1,9.758766174E0
4.085000000E1,-2.298433632E-1,-7.948749661E-1,9.768342972E0
4.087499531E1,-2.489969730E-1,-8.140285611E-1,9.777919769E0
4.090001250E1,-2.394201756E-1,-8.140285611E-1,9.758766174E0
4.092498750E1,-2.202665508E-1,-8.140285611E-1,9.777919769E0
4.094998438E1,-1.915361285E-1,-8.331822157E-1,9.749189377E0
4.097498125E1,-2.489969730E-1,-8.427590132E-1,9.749189377E0
4.099500313E1,-2.394201756E-1,-8.427590132E-1,9.768342972E0
4.102000000E1,-2.585737705E-1,-8.044517636E-1,9.787496567E0
4.104499531E1,-2.585737705E-1,-8.044517636E-1,9.749189377E0
4.106999375E1,-3.351882398E-1,-8.140285611E-1,9.730035782E0
4.109498906E1,-2.968810201E-1,-8.140285611E-1,9.806650162E0
4.111998594E1,-3.256114423E-1,-7.469909191E-1,9.787496567E0
4.114498125E1,-2.585737705E-1,-7.469909191E-1,9.797073364E0
4.116500469E1,-2.394201756E-1,-7.565677166E-1,9.749189377E0
4.119000156E1,-2.394201756E-1,-7.661445141E-1,9.730035782E0
4.121499688E1,-2.489969730E-1,-8.236053586E-1,9.768342972E0
4.123999375E1,-1.532289088E-1,-8.523358107E-1,9.806650162E0
4.126499062E1,-2.106897533E-1,-8.619126081E-1,9.768342972E0
4.128998594E1,-1.628057212E-1,-8.331822157E-1,9.739612579E0
4.131498281E1,-1.723825186E-1,-8.331822157E-1,9.749189377E0
4.133997969E1,-1.915361285E-1,-8.140285611E-1,9.758766174E0
4.136000313E1,-2.489969730E-1,-8.044517636E-1,9.749189377E0
4.138499844E1,-2.585737705E-1,-7.757213712E-1,9.787496567E0
4.140999531E1,-3.160346150E-1,-7.661445141E-1,9.787496567E0
4.143499063E1,-2.873041928E-1,-7.948749661E-1,9.749189377E0
4.145998906E1,-2.777273953E-1,-7.757213712E-1,9.787496567E0
4.148498281E1,-2.873041928E-1,-7.852981687E-1,9.758766174E0
4.150998125E1,-2.585737705E-1,-8.331822157E-1,9.749189377E0
4.153000312E1,-2.777273953E-1,-8.044517636E-1,9.768342972E0
4.155500000E1,-2.777273953E-1,-8.044517636E-1,9.768342972E0
4.157999688E1,-2.777273953E-1,-8.140285611E-1,9.768342972E0
4.160499219E1,-2.777273953E-1,-8.427590132E-1,9.758766174E0
4.162998906E1,-2.681505978E-1,-8.140285611E-1,9.777919769E0
4.165498594E1,-2.298433632E-1,-8.236053586E-1,9.777919769E0
4.167998281E1,-2.298433632E-1,-8.044517636E-1,9.758766174E0
4.170000469E1,-2.394201756E-1,-8.236053586E-1,9.777919769E0
4.172500000E1,-2.202665508E-1,-8.044517636E-1,9.777919769E0
4.174999688E1,-2.394201756E-1,-8.044517636E-1,9.768342972E0
4.177499375E1,-2.585737705E-1,-8.140285611E-1,9.806650162E0
4.179999062E1,-2.489969730E-1,-7.948749661E-1,9.777919769E0
4.182498594E1,-2.202665508E-1,-8.140285611E-1,9.777919769E0
4.184998281E1,-2.202665508E-1,-7.948749661E-1,9.777919769E0
4.187497969E1,-2.298433632E-1,-7.948749661E-1,9.777919769E0
4.189500156E1,-2.394201756E-1,-8.044517636E-1,9.768342972E0
4.191999844E1,-2.585737705E-1,-8.140285611E-1,9.768342972E0
4.194499375E1,-2.585737705E-1,-8.140285611E-1,9.777919769E0
4.196999062E1,-2.777273953E-1,-8.523358107E-1,9.739612579E0
4.199498750E1,-2.873041928E-1,-8.523358107E-1,9.787496567E0
4.201998438E1,-2.681505978E-1,-8.236053586E-1,9.797073364E0
4.204498125E1,-2.202665508E-1,-7.565677166E-1,9.768342972E0
4.206500313E1,-2.394201756E-1,-7.757213712E-1,9.749189377E0
4.209000000E1,-2.489969730E-1,-8.044517636E-1,9.758766174E0
4.211499531E1,-2.681505978E-1,-7.948749661E-1,9.777919769E0
4.213999219E1,-3.064578176E-1,-8.044517636E-1,9.777919769E0
4.216498906E1,-2.873041928E-1,-8.236053586E-1,9.768342972E0
4.218998594E1,-2.585737705E-1,-8.044517636E-1,9.768342972E0
4.221498125E1,-2.298433632E-1,-8.044517636E-1,9.777919769E0
4.223500313E1,-1.628057212E-1,-8.140285611E-1,9.777919769E0
4.226000156E1,-2.011129409E-1,-8.236053586E-1,9.797073364E0
4.228499688E1,-1.819593310E-1,-8.236053586E-1,9.864110947E0
4.230999375E1,-2.106897533E-1,-8.427590132E-1,9.835380554E0
4.233498906E1,-3.830722570E-1,-7.565677166E-1,9.739612579E0
4.235998594E1,-4.118026793E-1,-7.278373241E-1,9.672574997E0
4.238498281E1,-2.489969730E-1,-8.236053586E-1,9.758766174E0
4.240500469E1,-1.723825186E-1,-8.523358107E-1,9.749189377E0
4.243000156E1,-2.202665508E-1,-8.331822157E-1,9.749189377E0
4.245499844E1,-1.532289088E-1,-8.044517636E-1,9.777919769E0
4.247999531E1,-1.628057212E-1,-8.044517636E-1,9.720458984E0
4.250499063E1,-2.394201756E-1,-7.948749661E-1,9.739612579E0
4.252998750E1,-2.681505978E-1,-7.757213712E-1,9.787496567E0
4.255498281E1,-2.585737705E-1,-7.661445141E-1,9.768342972E0
4.257997969E1,-2.298433632E-1,-7.565677166E-1,9.739612579E0
4.260000312E1,-2.585737705E-1,-7.661445141E-1,9.777919769E0
4.262499844E1,-2.873041928E-1,-7.948749661E-1,9.787496567E0
4.264999531E1,-2.968810201E-1,-7.948749661E-1,9.806650162E0
4.267499219E1,-2.777273953E-1,-7.852981687E-1,9.825803757E0
4.269999063E1,-2.489969730E-1,-7.948749661E-1,9.710882187E0
4.272498438E1,-2.873041928E-1,-7.661445141E-1,9.691728592E0
4.274998125E1,-2.968810201E-1,-8.044517636E-1,9.768342972E0
4.277000312E1,-2.873041928E-1,-8.044517636E-1,9.777919769E0
4.279500000E1,-2.681505978E-1,-7.948749661E-1,9.730035782E0
4.282000156E1,-3.064578176E-1,-8.140285611E-1,9.749189377E0
4.284499219E1,-3.639186621E-1,-8.619126081E-1,9.739612579E0
4.286999062E1,-3.064578176E-1,-8.810662031E-1,9.768342972E0
4.289498594E1,-2.681505978E-1,-7.948749661E-1,9.797073364E0
4.291998281E1,-2.489969730E-1,-7.278373241E-1,9.730035782E0
4.294000313E1,-2.585737705E-1,-7.182605267E-1,9.701305389E0
4.296500156E1,-3.447650373E-1,-7.757213712E-1,9.758766174E0
4.298999844E1,-2.489969730E-1,-8.044517636E-1,9.816226959E0
4.301499375E1,-2.873041928E-1,-7.661445141E-1,9.777919769E0
4.303999219E1,-2.681505978E-1,-7.852981687E-1,9.749189377E0
4.306000469E1,-2.585737705E-1,-8.140285611E-1,9.749189377E0
4.308000469E1,-2.298433632E-1,-8.236053586E-1,9.777919769E0
4.310500000E1,-2.394201756E-1,-8.236053586E-1,9.787496567E0
4.312999688E1,-2.298433632E-1,-8.044517636E-1,9.787496567E0
4.315499219E1,-2.681505978E-1,-7.852981687E-1,9.768342972E0
4.317999062E1,-2.585737705E-1,-7.948749661E-1,9.787496567E0
4.320498594E1,-2.968810201E-1,-8.044517636E-1,9.787496567E0
4.322998281E1,-2.681505978E-1,-8.331822157E-1,9.749189377E0
4.325000469E1,-2.777273953E-1,-7.948749661E-1,9.777919769E0
4.327500156E1,-2.968810201E-1,-8.331822157E-1,9.777919769E0
4.329999688E1,-2.873041928E-1,-8.331822157E-1,9.739612579E0
4.332499375E1,-2.585737705E-1,-8.044517636E-1,9.758766174E0
4.334999063E1,-2.681505978E-1,-8.044517636E-1,9.758766174E0
4.337498594E1,-2.777273953E-1,-7.757213712E-1,9.777919769E0
4.339998438E1,-3.160346150E-1,-8.140285611E-1,9.797073364E0
4.342497969E1,-2.681505978E-1,-7.948749661E-1,9.787496567E0
4.344500156E1,-2.585737705E-1,-8.044517636E-1,9.787496567E0
4.346999844E1,-2.298433632E-1,-8.044517636E-1,9.768342972E0
4.349499531E1,-2.298433632E-1,-7.948749661E-1,9.777919769E0
4.351999219E1,-2.202665508E-1,-7.948749661E-1,9.787496567E0
4.354498750E1,-2.298433632E-1,-7.757213712E-1,9.787496567E0
4.356998438E1,-2.394201756E-1,-7.852981687E-1,9.768342972E0
4.359498125E1,-2.394201756E-1,-8.236053586E-1,9.777919769E0
4.361500312E1,-2.394201756E-1,-8.331822157E-1,9.797073364E0
4.364000000E1,-2.202665508E-1,-8.331822157E-1,9.768342972E0
4.366499531E1,-2.585737705E-1,-8.140285611E-1,9.749189377E0
4.368999375E1,-2.585737705E-1,-8.236053586E-1,9.749189377E0
4.371498906E1,-2.681505978E-1,-7.948749661E-1,9.749189377E0
4.373998594E1,-2.873041928E-1,-8.140285611E-1,9.758766174E0
4.376498281E1,-3.064578176E-1,-8.331822157E-1,9.768342972E0
4.378500469E1,-2.585737705E-1,-8.236053586E-1,9.816226959E0
4.381000156E1,-2.489969730E-1,-7.374141216E-1,9.797073364E0
4.383499688E1,-2.394201756E-1,-7.565677166E-1,9.758766174E0
4.385999375E1,-2.777273953E-1,-7.948749661E-1,9.739612579E0
4.388499062E1,-2.968810201E-1,-8.044517636E-1,9.768342972E0
4.390998750E1,-2.777273953E-1,-8.044517636E-1,9.739612579E0
4.393498281E1,-2.585737705E-1,-7.852981687E-1,9.787496567E0
4.395997969E1,-2.681505978E-1,-7.948749661E-1,9.787496567E0
4.398000156E1,-2.681505978E-1,-7.661445141E-1,9.749189377E0
4.400499844E1,-2.585737705E-1,-7.948749661E-1,9.768342972E0
4.402999531E1,-2.202665508E-1,-8.140285611E-1,9.758766174E0
4.405499062E1,-2.011129409E-1,-8.523358107E-1,9.777919769E0
4.407998750E1,-1.915361285E-1,-8.236053586E-1,9.806650162E0
4.410498438E1,-2.394201756E-1,-7.948749661E-1,9.758766174E0
4.412998125E1,-2.585737705E-1,-7.948749661E-1,9.758766174E0
4.415000313E1,-2.777273953E-1,-7.661445141E-1,9.777919769E0
4.417500000E1,-3.160346150E-1,-7.852981687E-1,9.787496567E0
4.419999688E1,-3.064578176E-1,-7.852981687E-1,9.768342972E0
4.422499219E1,-2.681505978E-1,-7.757213712E-1,9.777919769E0
4.424998906E1,-2.489969730E-1,-7.852981687E-1,9.777919769E0
4.427498438E1,-2.394201756E-1,-8.236053586E-1,9.749189377E0
4.429998281E1,-2.489969730E-1,-8.427590132E-1,9.749189377E0
4.432000469E1,-2.489969730E-1,-8.236053586E-1,9.758766174E0
4.434504375E1,-2.681505978E-1,-7.852981687E-1,9.777919769E0
4.436999688E1,-2.968810201E-1,-7.852981687E-1,9.749189377E0
4.439499375E1,-2.489969730E-1,-8.331822157E-1,9.806650162E0
4.441999063E1,-2.585737705E-1,-8.331822157E-1,9.768342972E0
4.444498594E1,-2.681505978E-1,-7.948749661E-1,9.768342972E0
4.446998281E1,-2.585737705E-1,-8.044517636E-1,9.777919769E0
4.449497812E1,-2.585737705E-1,-7.852981687E-1,9.768342972E0
4.451500156E1,-2.489969730E-1,-7.852981687E-1,9.749189377E0
4.453999844E1,-2.777273953E-1,-8.044517636E-1,9.787496567E0
4.456499375E1,-2.681505978E-1,-8.044517636E-1,9.806650162E0
4.458999219E1,-2.585737705E-1,-7.948749661E-1,9.749189377E0
4.461498750E1,-2.681505978E-1,-8.140285611E-1,9.787496567E0
4.463998438E1,-2.202665508E-1,-7.661445141E-1,9.797073364E0
4.466497969E1,-2.585737705E-1,-7.948749661E-1,9.758766174E0
4.468500312E1,-2.489969730E-1,-8.523358107E-1,9.739612579E0
4.471000000E1,-2.681505978E-1,-8.427590132E-1,9.816226959E0
4.473499531E1,-2.394201756E-1,-7.757213712E-1,9.806650162E0
4.475999219E1,-2.489969730E-1,-7.757213712E-1,9.768342972E0
4.478498750E1,-2.585737705E-1,-8.236053586E-1,9.749189377E0
4.480998594E1,-2.394201756E-1,-8.236053586E-1,9.768342972E0
4.483498125E1,-2.681505978E-1,-8.044517636E-1,9.758766174E0
4.485500312E1,-2.873041928E-1,-7.948749661E-1,9.768342972E0
4.488000156E1,-2.873041928E-1,-7.948749661E-1,9.787496567E0
4.490499688E1,-2.681505978E-1,-7.948749661E-1,9.777919769E0
4.492999375E1,-2.777273953E-1,-7.661445141E-1,9.739612579E0
4.495498906E1,-2.777273953E-1,-7.661445141E-1,9.739612579E0
4.497999219E1,-2.489969730E-1,-7.757213712E-1,9.758766174E0
4.500498281E1,-2.681505978E-1,-7.565677166E-1,9.777919769E0
4.502500469E1,-2.777273953E-1,-7.852981687E-1,9.758766174E0
4.505000156E1,-2.489969730E-1,-8.523358107E-1,9.768342972E0
4.507499844E1,-2.489969730E-1,-8.523358107E-1,9.758766174E0
4.510002969E1,-2.585737705E-1,-8.427590132E-1,9.787496567E0
4.512499062E1,-2.489969730E-1,-8.331822157E-1,9.787496567E0
4.514998750E1,-3.160346150E-1,-7.948749661E-1,9.787496567E0
4.517498281E1,-2.968810201E-1,-7.757213712E-1,9.797073364E0
4.519998125E1,-2.873041928E-1,-7.374141216E-1,9.768342972E0
4.522000469E1,-2.777273953E-1,-7.757213712E-1,9.749189377E0
4.524499844E1,-2.681505978E-1,-8.140285611E-1,9.749189377E0
4.526999688E1,-2.681505978E-1,-8.044517636E-1,9.768342972E0
4.529499219E1,-2.394201756E-1,-7.948749661E-1,9.806650162E0
4.531998906E1,-2.394201756E-1,-8.140285611E-1,9.768342972E0
4.534498438E1,-1.915361285E-1,-8.140285611E-1,9.797073364E0
4.536998125E1,-2.011129409E-1,-8.140285611E-1,9.787496567E0
4.539000312E1,-2.011129409E-1,-8.140285611E-1,9.768342972E0
4.541500000E1,-2.106897533E-1,-8.236053586E-1,9.758766174E0
4.543999688E1,-2.298433632E-1,-8.140285611E-1,9.749189377E0
4.546499219E1,-2.873041928E-1,-8.236053586E-1,9.777919769E0
4.548998906E1,-2.489969730E-1,-7.948749661E-1,9.749189377E0
4.551498594E1,-3.160346150E-1,-7.661445141E-1,9.777919769E0
4.553998281E1,-3.447650373E-1,-7.182605267E-1,9.749189377E0
4.556000469E1,-3.639186621E-1,-7.374141216E-1,9.730035782E0
4.558002031E1,-3.639186621E-1,-8.044517636E-1,9.777919769E0
4.560499219E1,-2.873041928E-1,-8.331822157E-1,9.806650162E0
4.562998906E1,-2.298433632E-1,-7.852981687E-1,9.806650162E0
4.565498438E1,-2.011129409E-1,-7.661445141E-1,9.739612579E0
4.567998125E1,-2.489969730E-1,-8.140285611E-1,9.701305389E0
4.570000625E1,-2.298433632E-1,-8.714894056E-1,9.730035782E0
4.572500000E1,-2.394201756E-1,-9.002198577E-1,9.787496567E0
4.575001094E1,-1.723825186E-1,-8.523358107E-1,9.806650162E0
4.577499219E1,-1.436520964E-1,-7.852981687E-1,9.749189377E0
4.579999844E1,-1.436520964E-1,-7.661445141E-1,9.768342972E0
4.582498594E1,-1.819593310E-1,-7.661445141E-1,9.768342972E0
4.585000625E1,-2.681505978E-1,-7.565677166E-1,9.787496567E0
4.587497813E1,-2.777273953E-1,-7.469909191E-1,9.816226959E0
4.589500156E1,-2.968810201E-1,-7.374141216E-1,9.768342972E0
4.591999844E1,-3.351882398E-1,-7.757213712E-1,9.777919769E0
4.594001875E1,-2.681505978E-1,-7.948749661E-1,9.768342972E0
4.596498438E1,-2.585737705E-1,-8.236053586E-1,9.777919769E0
4.598998281E1,-2.489969730E-1,-8.427590132E-1,9.768342972E0
4.601000469E1,-2.681505978E-1,-8.427590132E-1,9.787496567E0
4.603500000E1,-2.681505978E-1,-8.619126081E-1,9.777919769E0
4.605999688E1,-2.968810201E-1,-8.140285611E-1,9.787496567E0
4.608499219E1,-2.968810201E-1,-8.044517636E-1,9.787496567E0
4.610998906E1,-2.873041928E-1,-8.044517636E-1,9.777919769E0
4.613498594E1,-2.681505978E-1,-7.852981687E-1,9.797073364E0
4.615998281E1,-2.298433632E-1,-8.044517636E-1,9.777919769E0
4.618000469E1,-2.585737705E-1,-7.852981687E-1,9.768342972E0
4.620500156E1,-2.489969730E-1,-7.948749661E-1,9.806650162E0
4.622999688E1,-2.777273953E-1,-7.757213712E-1,9.797073364E0
4.625499375E1,-3.064578176E-1,-8.427590132E-1,9.777919769E0
4.627999062E1,-2.777273953E-1,-8.427590132E-1,9.816226959E0
4.630498594E1,-2.298433632E-1,-8.044517636E-1,9.854534149E0
4.632998438E1,-2.106897533E-1,-7.948749661E-1,9.835380554E0
4.635497969E1,-1.819593310E-1,-7.757213712E-1,9.825803757E0
4.637500156E1,-2.298433632E-1,-7.757213712E-1,9.854534149E0
4.639999844E1,-2.106897533E-1,-7.565677166E-1,9.806650162E0
4.642499531E1,-2.489969730E-1,-8.044517636E-1,9.825803757E0
4.644999219E1,-2.298433632E-1,-8.714894056E-1,9.883264542E0
4.647498750E1,-5.746083856E-1,-4.501099288E-1,9.787496567E0
4.649998438E1,3.639186621E-1,-1.244984865E-1,9.806650162E0
4.652498125E1,2.968810201E-1,2.777273953E-1,9.844957352E0
4.654500312E1,-1.024718285E0,-2.039859772E0,9.911994934E0
4.657000000E1,-1.206677675E0,-8.140285611E-1,9.806650162E0
4.659499688E1,9.672574997E-1,2.394201756E-1,9.835380554E0
4.661999375E1,-1.149216771E0,-8.331822157E-1,9.768342972E0
4.664498906E1,7.086837292E-1,-7.757213712E-1,9.873687744E0
4.666998594E1,-1.503558636E0,-1.915361404E0,9.787496567E0
4.669498125E1,-2.106897533E-1,-1.896207690E0,9.806650162E0
4.671500469E1,-9.289502501E-1,-3.734954596E-1,9.844957352E0
4.674000156E1,8.523358107E-1,6.512228847E-1,9.911994934E0
4.676499688E1,-1.388636947E0,-1.101332784E0,9.835380554E0
4.678999375E1,8.140285611E-1,4.979939461E-1,9.844957352E0
4.681499062E1,3.830722719E-2,-1.350329757E0,9.950302124E0
4.683998750E1,4.596867263E-1,9.576806426E-2,9.854534149E0
4.686498281E1,-3.926490843E-1,-2.106897533E-1,9.768342972E0
4.688997969E1,2.681505978E-1,-8.906430602E-1,9.873687744E0
4.691000156E1,1.819593310E-1,-1.015141487E0,9.911994934E0
4.693499844E1,-1.628057212E-1,-1.034295082E0,9.835380554E0
4.695999531E1,-2.489969730E-1,-8.619126081E-1,9.816226959E0
4.698499062E1,-2.489969730E-1,-8.810662031E-1,9.825803757E0
4.700998750E1,-2.777273953E-1,-8.523358107E-1,9.825803757E0
4.703498438E1,-3.064578176E-1,-8.331822157E-1,9.787496567E0
4.705998125E1,-2.585737705E-1,-1.197100878E0,9.825803757E0
4.708000313E1,-8.714894056E-1,-1.225831270E0,9.854534149E0
4.710500000E1,-1.340752989E-1,-1.388636947E0,9.806650162E0
4.712999688E1,-3.926490843E-1,-1.695094824E0,9.825803757E0
4.715499219E1,-7.469909191E-1,-2.001552582E0,9.864110947E0
4.717998906E1,-1.369483352E0,-2.068590164E0,9.806650162E0
4.720498438E1,-5.267243981E-1,-2.011129379E0,9.825803757E0
4.722998281E1,-1.340752959E0,-2.173935175E0,9.787496567E0
4.725000469E1,8.619126081E-1,-2.394201756E-1,9.854534149E0
4.727500000E1,-1.465251446E0,-1.618480325E0,9.787496567E0
4.729999688E1,-1.168370485E0,-2.308010340E0,9.816226959E0
4.732499375E1,-2.011129409E-1,3.256114423E-1,9.854534149E0
4.734999063E1,7.948749661E-1,-6.224924326E-1,9.825803757E0
4.737498594E1,5.458779931E-1,6.607996821E-1,9.835380554E0
4.739998438E1,-6.703764796E-1,-2.394201756E-1,9.797073364E0
4.742497969E1,-1.043871999E0,-1.628057122E0,9.835380554E0
4.744500156E1,-8.810662031E-1,-8.044517636E-1,9.787496567E0
4.746999844E1,-4.118026793E-1,-1.359906554E0,9.806650162E0
4.749499375E1,0.000000000E0,-5.937620401E-1,9.825803757E0
4.751999219E1,-8.619125932E-2,-7.469909191E-1,9.768342972E0
4.754498750E1,-3.160346150E-1,-6.799532771E-1,9.768342972E0
4.756998438E1,-2.202665508E-1,-8.810662031E-1,9.797073364E0
4.759497969E1,-2.489969730E-1,-8.906430602E-1,9.777919769E0
4.761500156E1,-2.968810201E-1,-8.331822157E-1,9.777919769E0
4.764000000E1,-3.160346150E-1,-8.044517636E-1,9.777919769E0
4.766499531E1,-3.256114423E-1,-7.948749661E-1,9.825803757E0
4.768999219E1,-2.681505978E-1,-7.661445141E-1,9.797073364E0
4.771498750E1,-2.777273953E-1,-7.374141216E-1,9.787496567E0
4.773998594E1,-2.394201756E-1,-7.182605267E-1,9.787496567E0
4.776498125E1,-2.873041928E-1,-7.278373241E-1,9.777919769E0
4.778500312E1,-2.585737705E-1,-7.374141216E-1,9.787496567E0
4.781000000E1,-2.585737705E-1,-7.757213712E-1,9.797073364E0
4.783499688E1,-2.585737705E-1,-8.044517636E-1,9.787496567E0
4.785999375E1,-2.968810201E-1,-8.236053586E-1,9.777919769E0
4.788498906E1,-3.351882398E-1,-8.427590132E-1,9.777919769E0
4.790998750E1,-9.576806799E-3,-9.289502501E-1,9.816226959E0
4.793498281E1,-2.585737705E-1,-8.906430602E-1,9.768342972E0
4.795500469E1,-5.363011956E-1,-8.236053586E-1,9.730035782E0
4.798000000E1,-2.873041928E-1,-7.469909191E-1,9.797073364E0
4.800499688E1,-2.106897533E-1,-8.714894056E-1,9.739612579E0
4.802999531E1,-3.064578176E-1,-8.236053586E-1,9.749189377E0
4.805499062E1,-2.011129409E-1,-7.948749661E-1,9.806650162E0
4.807998750E1,-2.777273953E-1,-8.044517636E-1,9.768342972E0
4.810000000E1,-3.351882398E-1,-7.374141216E-1,9.806650162E0
4.812000000E1,-2.585737705E-1,-7.278373241E-1,9.797073364E0
4.814499688E1,-2.585737705E-1,-7.948749661E-1,9.768342972E0
4.816999375E1,-2.585737705E-1,-7.661445141E-1,9.816226959E0
4.819498906E1,-2.585737705E-1,-7.948749661E-1,9.816226959E0
4.821998750E1,-2.202665508E-1,-8.140285611E-1,9.749189377E0
4.824498281E1,-2.298433632E-1,-8.331822157E-1,9.787496567E0
4.826500469E1,-2.202665508E-1,-8.427590132E-1,9.787496567E0
4.829000156E1,-1.628057212E-1,-8.427590132E-1,9.777919769E0
4.831499688E1,-1.723825186E-1,-8.427590132E-1,9.797073364E0
4.834003750E1,-1.532289088E-1,-8.619126081E-1,9.777919769E0
4.836499063E1,-1.628057212E-1,-8.427590132E-1,9.797073364E0
4.838998750E1,-2.106897533E-1,-8.427590132E-1,9.787496567E0
4.841498281E1,-2.298433632E-1,-8.044517636E-1,9.787496567E0
