"Time (s)","Linear Acceleration x (m/s^2)","Linear Acceleration y (m/s^2)","Linear Acceleration z (m/s^2)"
1.999062500E-2,-1.709999889E-2,-2.354999930E-1,5.899999756E-3
4.999218700E-2,1.310000010E-2,-3.370999992E-1,-1.743000001E-1
7.999531200E-2,1.127000004E-1,-3.568999767E-1,-8.889999986E-2
1.099968750E-1,6.319999695E-2,-4.326999784E-1,7.339999825E-2
1.399984370E-1,6.689999998E-2,-4.531999826E-1,-2.679999918E-2
1.700000000E-1,-3.145999908E-1,2.520000003E-2,-3.390000015E-2
2.000031250E-1,-2.707000077E-1,3.479000032E-1,4.799999762E-3
2.299734370E-1,-8.438000083E-1,6.797999740E-1,1.074000001E-1
2.499953120E-1,-9.989999533E-1,7.657999992E-1,2.308999896E-1
2.799968750E-1,-9.405999780E-1,8.969999552E-1,3.729999959E-1
3.100000000E-1,-1.161700010E0,1.181399941E0,1.581999958E-1
3.400015620E-1,-1.213999987E0,1.381899953E0,1.888999939E-1
3.700046870E-1,-1.558399916E0,1.761399984E0,2.782999873E-1
3.999750000E-1,-1.671899915E0,1.752699971E0,-8.599999547E-2
4.199968750E-1,-1.673299909E0,1.533399940E0,-8.639999479E-2
4.499984370E-1,-1.611199975E0,1.287400007E0,3.630000055E-1
4.800015620E-1,-1.543900013E0,1.199199915E0,4.529999793E-1
5.100031250E-1,-1.810799956E0,1.341599941E0,3.938999772E-1
5.399750000E-1,-2.036599874E0,1.418599963E0,8.179999888E-2
5.599968750E-1,-2.132900000E0,1.458899975E0,1.103999987E-1
5.899984370E-1,-1.873799920E0,1.315999985E0,1.859000027E-1
6.200000000E-1,-1.956599951E0,1.360299945E0,2.449999936E-2
6.500015620E-1,-1.705399990E0,1.184000015E0,3.901999891E-1
6.800046870E-1,-1.407099962E0,1.493299961E0,4.228999913E-1
7.099750000E-1,-1.742999911E0,1.844499946E0,2.660000026E-1
7.299968750E-1,-1.911099911E0,1.871999979E0,2.572999895E-1
7.599984370E-1,-2.028100014E0,1.736699939E0,4.535000026E-1
7.900015620E-1,-1.771099925E0,1.701900005E0,3.461000025E-1
8.200031250E-1,-1.684799910E0,1.855799913E0,3.410999775E-1
8.499734370E-1,-1.634299994E0,1.765499949E0,3.413999975E-1
8.699953120E-1,-1.769299984E0,1.624099970E0,3.340999782E-1
8.999984370E-1,-1.907099962E0,1.715099931E0,3.678999841E-1
9.300000000E-1,-1.884699941E0,1.812199950E0,2.654999793E-1
9.600031250E-1,-1.952699900E0,1.946299911E0,3.419999778E-1
9.900046870E-1,-2.107800007E0,1.892300010E0,4.041999876E-1
1.019975000E0,-2.128200054E0,1.785399914E0,3.251000047E-1
1.039996875E0,-1.814700007E0,1.663499951E0,3.614999950E-1
1.069998437E0,-1.489699960E0,1.557199955E0,3.612000048E-1
1.100001562E0,-1.956200004E0,1.754699945E0,2.922999859E-1
1.130003125E0,-2.213199854E0,1.682599902E0,3.698999882E-1
1.159973437E0,-2.240299940E0,1.787299991E0,5.432999730E-1
1.179995312E0,-2.116999865E0,1.767899990E0,5.252999663E-1
1.209998437E0,-1.847299933E0,1.662999988E0,3.701999784E-1
1.240000000E0,-1.789999962E0,1.785599947E0,1.860999912E-1
1.270001562E0,-1.865099907E0,1.790799975E0,2.619000077E-1
1.300004687E0,-1.888000011E0,1.787400007E0,5.555999875E-1
1.329975000E0,-1.725799918E0,1.705799937E0,3.800999820E-1
1.349998437E0,-1.650799990E0,1.683599949E0,2.958999872E-1
1.380000000E0,-1.893799901E0,1.878499985E0,3.910999894E-1
1.410001562E0,-1.965399981E0,1.819700003E0,4.061999917E-1
1.440003125E0,-1.869599938E0,1.797499895E0,4.741999805E-1
1.469973437E0,-1.658999920E0,1.653100014E0,4.569999874E-1
1.489996875E0,-1.602199912E0,1.733699918E0,4.300999939E-1
1.519998437E0,-1.663199902E0,1.799299955E0,3.913999796E-1
1.550000000E0,-1.683699965E0,1.693699956E0,4.880999923E-1
1.580001562E0,-1.946199894E0,1.849099994E0,5.705999732E-1
1.610004687E0,-2.004699945E0,1.814199924E0,4.147000015E-1
1.639975000E0,-2.029299974E0,1.877499938E0,4.661999941E-1
1.659996875E0,-1.998999953E0,1.885299921E0,3.852999806E-1
1.689998437E0,-1.884599924E0,1.875999928E0,4.072999954E-1
1.720012500E0,-1.865199924E0,1.926299930E0,4.925999939E-1
1.750003125E0,-1.752599955E0,1.856399894E0,4.849999845E-1
1.779973437E0,-1.735399961E0,1.892799973E0,4.937999845E-1
1.799996875E0,-1.763000011E0,1.912499905E0,4.122999907E-1
1.829998437E0,-1.761799932E0,1.805499911E0,3.571999967E-1
1.860000000E0,-1.930099964E0,1.846799970E0,5.166999698E-1
1.890003125E0,-1.871399999E0,1.722299933E0,4.706999958E-1
1.920004687E0,-1.854699969E0,1.742199898E0,4.560000002E-1
1.949975000E0,-1.810199976E0,1.746799946E0,3.957999945E-1
1.969996875E0,-1.790300012E0,1.755999923E0,4.177999794E-1
1.999998437E0,-1.842099905E0,1.868399978E0,5.023999810E-1
2.030001562E0,-1.808399916E0,1.842599988E0,4.280000031E-1
2.060003125E0,-1.970999956E0,1.868399978E0,4.448999763E-1
2.089973437E0,-1.993199944E0,1.737399936E0,4.811999798E-1
2.109996875E0,-1.959399939E0,1.723999977E0,5.311999917E-1
2.139998437E0,-1.811499953E0,1.853299975E0,4.736000001E-1
2.170000000E0,-1.557399988E0,1.788599968E0,4.071999788E-1
2.200003125E0,-1.604499936E0,1.837299943E0,4.837999940E-1
2.230004687E0,-1.696999907E0,1.926299930E0,4.878000021E-1
2.259975000E0,-1.968199968E0,2.079699993E0,4.814999998E-1
2.279996875E0,-1.929299951E0,1.980699897E0,5.008999705E-1
2.310000000E0,-1.573499918E0,1.773899913E0,5.092999935E-1
2.340001562E0,-1.681999922E0,1.859399915E0,4.663999975E-1
2.370003125E0,-1.676699996E0,1.828799963E0,4.305999875E-1
2.399975000E0,-1.815299988E0,1.786700010E0,5.609999895E-1
2.419996875E0,-1.884999990E0,1.800699949E0,5.213999748E-1
2.449998437E0,-1.844900012E0,1.777999997E0,4.168999791E-1
2.480000000E0,-1.882299900E0,1.856599927E0,4.635999799E-1
2.510003125E0,-1.798299909E0,1.858999968E0,5.182999969E-1
2.540004687E0,-1.933499932E0,1.949999928E0,4.104999900E-1
2.565001562E0,-1.945599914E0,1.900499940E0,4.483999908E-1
2.595003125E0,-1.795699954E0,1.836599946E0,4.621999860E-1
2.624973437E0,-1.885100007E0,1.981499910E0,4.854999781E-1
2.644995312E0,-1.860499978E0,1.967399955E0,4.977999926E-1
2.674998437E0,-1.751999974E0,1.901799917E0,4.538999796E-1
2.705000000E0,-1.802599907E0,2.001800060E0,4.912000000E-1
2.735001562E0,-1.739199996E0,1.940299988E0,4.842000008E-1
2.765004687E0,-1.734499931E0,2.004799843E0,5.331000090E-1
2.794975000E0,-1.658699989E0,1.950399995E0,4.899999797E-1
2.814996875E0,-1.679399967E0,1.933499932E0,4.810999930E-1
2.845000000E0,-1.754199982E0,1.953599930E0,5.173999667E-1
2.875001562E0,-1.692699909E0,1.881199956E0,4.637999833E-1
2.905003125E0,-1.728699923E0,1.942799926E0,5.175999999E-1
2.934973437E0,-1.707399964E0,1.883899927E0,4.625999928E-1
2.954995312E0,-1.716599941E0,1.857800007E0,4.634999931E-1
2.984998437E0,-1.735499978E0,1.941199899E0,4.900999963E-1
3.015000000E0,-1.774299979E0,1.936199903E0,4.742999971E-1
3.045001562E0,-1.856799960E0,1.993499994E0,5.026999712E-1
3.075004687E0,-1.777899981E0,1.898000002E0,4.566999972E-1
3.104975000E0,-1.797799945E0,2.051100016E0,4.838999808E-1
3.124996875E0,-1.793999910E0,2.039000034E0,4.726999998E-1
3.154998437E0,-1.766099930E0,1.950699925E0,4.558999836E-1
3.185001562E0,-1.776199937E0,1.908199906E0,4.578000009E-1
3.215003125E0,-1.626399994E0,1.847499967E0,4.165999889E-1
3.244973437E0,-1.561800003E0,1.758899927E0,3.630999923E-1
3.264996875E0,-1.488999963E0,1.691499949E0,3.305999935E-1
3.294998437E0,-1.385599971E0,1.540599942E0,3.570999801E-1
3.325001562E0,-1.354300022E0,1.562899947E0,3.173999786E-1
3.355003125E0,-1.274799943E0,1.433099985E0,2.309999913E-1
3.385004687E0,-1.176999927E0,1.368499994E0,2.351000011E-1
3.414975000E0,-1.114799976E0,1.285799980E0,2.134999931E-1
3.434996875E0,-1.080799937E0,1.208099961E0,2.090999931E-1
3.465000000E0,-1.010499954E0,1.171100020E0,1.763999909E-1
3.495001562E0,-9.407999516E-1,1.071499944E0,1.523000002E-1
3.525003125E0,-8.927999735E-1,9.995999932E-1,1.314999908E-1
3.554996875E0,-8.230999708E-1,9.232999682E-1,1.692000031E-1
3.574996875E0,-8.161000013E-1,9.030999541E-1,1.305000037E-1
3.604998437E0,-7.534999847E-1,8.933999538E-1,9.239999950E-2
3.635000000E0,-6.902999878E-1,8.001999855E-1,8.659999818E-2
3.665003125E0,-6.712999940E-1,7.662000060E-1,1.092000008E-1
3.695004687E0,-6.056999564E-1,7.210999727E-1,7.710000128E-2
3.724975000E0,-5.505999923E-1,6.808999777E-1,8.129999787E-2
3.744996875E0,-5.460000038E-1,6.231999993E-1,7.620000094E-2
3.775000000E0,-5.450999737E-1,5.708000064E-1,5.729999766E-2
3.805001562E0,-4.634999931E-1,5.178999901E-1,1.409999933E-2
3.835003125E0,-4.878000021E-1,4.930000007E-1,4.609999806E-2
3.864975000E0,-4.093999863E-1,5.261999965E-1,5.460000038E-2
3.884996875E0,-4.384999871E-1,4.758999944E-1,4.160000011E-2
3.914998437E0,-3.930999935E-1,4.267999828E-1,8.509999514E-2
3.945000000E0,-3.953000009E-1,4.853999913E-1,5.289999768E-2
3.975003125E0,-3.339000046E-1,4.350999892E-1,1.829999872E-2
4.005004687E0,-3.095999956E-1,3.596999943E-1,2.599999867E-2
4.034976562E0,-2.647999823E-1,2.918999791E-1,5.189999938E-2
4.054998437E0,-2.344999909E-1,2.885999978E-1,4.050000012E-2
4.085000000E0,-2.242999971E-1,2.858999968E-1,9.699999355E-3
4.115001562E0,-2.234999985E-1,2.714999914E-1,4.619999975E-2
4.145004687E0,-2.422999889E-1,2.788999975E-1,5.599999800E-3
4.174975000E0,-2.395000011E-1,2.275999933E-1,3.269999847E-2
4.194996875E0,-2.384999990E-1,2.645999789E-1,2.169999853E-2
4.224998437E0,-2.003999949E-1,2.245000005E-1,3.039999865E-2
4.255000000E0,-1.469999999E-1,2.232999951E-1,1.850000024E-2
4.285003125E0,-1.498999894E-1,1.958999932E-1,1.779999956E-2
4.315004687E0,-1.358999908E-1,1.616999954E-1,6.599999964E-3
4.345018750E0,-1.107999980E-1,1.639999896E-1,2.549999952E-2
4.374978125E0,-1.477999985E-1,1.596999913E-1,2.009999938E-2
4.395000000E0,-9.449999779E-2,1.621000022E-1,9.599999525E-3
4.425001562E0,-1.273999959E-1,1.639999896E-1,1.869999990E-2
4.455004687E0,-1.164999977E-1,1.218999997E-1,-1.899999916E-3
4.484975000E0,-1.309999973E-1,1.269000024E-1,-1.209999993E-2
4.504996875E0,-8.649999648E-2,9.229999781E-2,-1.249999925E-2
4.534998437E0,-1.152999997E-1,8.339999616E-2,-2.300000004E-2
4.565001562E0,-1.197999939E-1,6.939999759E-2,-1.349999942E-2
4.595003125E0,-8.240000159E-2,4.360000044E-2,1.539999992E-2
4.624973437E0,-3.940000013E-2,7.819999754E-2,1.499999966E-2
4.644995312E0,-5.680000037E-2,1.031999961E-1,4.799999762E-3
4.674998437E0,-7.009999454E-2,7.469999790E-2,-2.520000003E-2
4.705000000E0,-4.779999703E-2,1.002999991E-1,2.349999920E-2
4.735001562E0,-4.449999705E-2,1.182999983E-1,2.249999903E-2
4.765004687E0,-6.169999763E-2,7.599999756E-2,-6.999999750E-3
4.794975000E0,-4.739999771E-2,7.029999793E-2,-7.400000002E-3
4.814996875E0,-4.529999942E-2,3.909999877E-2,-7.499999832E-3
4.844998437E0,-4.409999773E-2,1.829999872E-2,-7.599999662E-3
4.875001562E0,-4.969999939E-2,2.599999867E-2,2.099999972E-2
4.905003125E0,-5.819999799E-2,4.329999909E-2,-2.809999883E-2
4.934973437E0,1.239999942E-2,5.810000002E-2,-1.869999990E-2
4.954995312E0,2.499999944E-3,3.669999912E-2,1.049999986E-2
4.984998437E0,-6.499999668E-3,6.279999763E-2,-9.300000034E-3
5.015000000E0,-1.449999958E-2,5.659999698E-2,0.000000000E0
5.045001562E0,4.399999976E-3,2.699999884E-2,0.000000000E0
5.075004687E0,-2.229999937E-2,1.620000042E-2,9.699999355E-3
5.104975000E0,-2.989999950E-2,5.339999869E-2,-9.999999747E-5
5.124996875E0,-6.729999930E-2,6.089999899E-2,-2.999999851E-4
5.154998437E0,-4.439999908E-2,3.739999980E-2,-5.999999703E-4
5.185001562E0,-5.399999674E-3,-2.399999881E-3,-2.999999933E-2
5.215003125E0,4.399999976E-3,7.199999876E-3,9.099999443E-3
5.244973437E0,-4.429999739E-2,6.899999920E-3,-5.999999703E-4
5.264996875E0,-2.410000004E-2,6.999999750E-3,-2.019999921E-2
5.294998437E0,-2.199999988E-2,1.549999975E-2,-1.049999986E-2
5.325000000E0,-1.079999935E-2,4.419999942E-2,-1.049999986E-2
5.355001562E0,-3.709999844E-2,5.059999973E-2,8.799999952E-3
5.385004687E0,-2.609999850E-2,3.749999776E-2,4.250000045E-2
5.414975000E0,-5.159999803E-2,2.479999885E-2,2.279999852E-2
5.434996875E0,-3.999999911E-2,1.429999992E-2,1.289999951E-2
5.465000000E0,-1.019999944E-2,2.300000004E-2,1.289999951E-2
5.495001562E0,8.499999531E-3,1.040000003E-2,2.799999900E-3
5.525003125E0,-1.139999926E-2,-3.729999810E-2,4.209999740E-2
5.554975000E0,5.319999903E-2,1.150000002E-2,4.199999943E-2
5.574995312E0,3.199999779E-2,-7.799999788E-3,3.219999745E-2
5.604998437E0,1.090000011E-2,-1.759999990E-2,1.260000002E-2
5.635000000E0,-9.099999443E-3,-3.390000015E-2,-6.699999794E-3
5.665001562E0,-9.099999443E-3,4.900000058E-3,3.000000026E-3
5.695004687E0,-8.799999952E-3,4.600000102E-3,4.219999909E-2
5.724975000E0,-1.730000041E-2,3.370000049E-2,3.240000084E-2
5.744996875E0,2.499999944E-3,1.169999968E-2,-1.669999957E-2
5.774998437E0,3.889999911E-2,1.300000004E-3,2.699999837E-3
5.805001562E0,1.759999990E-2,1.209999993E-2,4.199999943E-2
5.835003125E0,-5.680000037E-2,3.859999776E-2,2.219999954E-2
5.864973437E0,-1.024999991E-1,2.659999952E-2,-2.999999851E-4
5.884995312E0,-7.970000058E-2,2.529999986E-2,-1.999999955E-2
5.914998437E0,-2.599999867E-2,-2.219999954E-2,3.900000080E-2
5.945000000E0,1.289999951E-2,-3.070000000E-2,4.889999703E-2
5.975001562E0,9.319999814E-2,9.499999695E-3,-9.899999946E-3
6.005004687E0,8.999999613E-2,2.850000001E-2,-3.949999809E-2
6.034976562E0,-1.599999960E-3,-5.680000037E-2,4.889999703E-2
6.054996875E0,-5.779999867E-2,-3.579999879E-2,6.859999895E-2
6.085000000E0,-9.279999882E-2,1.319999993E-2,9.899999946E-3
6.115001562E0,-2.939999849E-2,-1.469999924E-2,-3.889999911E-2
6.145003125E0,-2.909999900E-2,-3.219999745E-2,8.869999647E-2
6.174973437E0,5.579999834E-2,-3.049999848E-2,1.475999951E-1
6.194996875E0,5.329999700E-2,-2.960000001E-2,1.083999947E-1
6.224998437E0,-2.423999906E-1,4.652999938E-1,2.459999919E-2
6.255000000E0,-3.642999828E-1,5.983999968E-1,-1.709999889E-1
6.285003125E0,-3.540000021E-1,9.255999923E-1,1.005999967E-1
6.315004687E0,-5.774999857E-1,1.070199966E0,2.154999971E-1
6.344975000E0,-8.693000078E-1,1.441200018E0,2.177999914E-1
6.364996875E0,-9.817999601E-1,1.500199914E0,2.265999913E-1
6.395000000E0,-1.025699973E0,1.479900002E0,2.620999813E-1
6.425001562E0,-1.034799933E0,1.675999999E0,3.613999784E-1
6.455003125E0,-1.013100028E0,1.650399923E0,3.107999861E-1
6.484973437E0,-1.049099922E0,1.699299932E0,2.879999876E-1
6.504996875E0,-1.096199989E0,1.740599990E0,4.158999920E-1
6.534998437E0,-1.001500010E0,1.675199986E0,2.215999961E-1
6.565000000E0,-1.120199919E0,1.748199940E0,4.054999948E-1
6.595003125E0,-1.062600017E0,1.636999965E0,4.343999922E-1
6.625004687E0,-1.034699917E0,1.863999963E0,3.400999904E-1
6.654975000E0,-1.006199956E0,1.859699965E0,4.048999846E-1
6.674996875E0,-1.051100016E0,1.837199926E0,3.814999759E-1
6.705000000E0,-1.098699927E0,1.935400009E0,3.145000041E-1
6.735001562E0,-1.194499969E0,1.954499960E0,5.318999887E-1
6.765003125E0,-1.295199990E0,2.102900028E0,3.017999828E-1
6.794975000E0,-1.118700027E0,1.999799967E0,3.904999793E-1
6.814996875E0,-1.189499974E0,2.009099960E0,4.324999750E-1
6.844998437E0,-1.376099944E0,2.029099941E0,4.050000012E-1
6.864998437E0,-1.375499964E0,2.044299841E0,2.829000056E-1
6.894992187E0,-9.880999923E-1,1.973499894E0,2.752999961E-1
6.924993750E0,-1.345899940E0,2.004600048E0,4.554999769E-1
6.954995312E0,-1.348699927E0,2.070699930E0,3.454999924E-1
6.984998437E0,-1.375899911E0,2.138900042E0,4.371999800E-1
7.015000000E0,-1.464699984E0,2.015499830E0,4.828999937E-1
7.045001562E0,-1.457099915E0,2.068599939E0,3.901999891E-1
7.075003125E0,-1.257099986E0,1.942399979E0,2.405999899E-1
7.104975000E0,-1.153499961E0,1.886899948E0,3.637999892E-1
7.124996875E0,-1.302399993E0,1.884799957E0,4.066999853E-1
7.154998437E0,-1.380299926E0,1.956499934E0,4.670999944E-1
7.185001562E0,-1.429199934E0,2.015100002E0,4.679999948E-1
7.215003125E0,-1.515699983E0,1.997199893E0,6.416000128E-1
7.245004687E0,-1.487100005E0,2.109200001E0,6.276999712E-1
7.274975000E0,-1.404299974E0,2.015199900E0,3.215999901E-1
7.294998437E0,-1.463299990E0,2.070099831E0,4.000999928E-1
7.325000000E0,-1.453499913E0,2.128399849E0,4.621999860E-1
7.355001562E0,-1.598199964E0,2.067899942E0,5.561000109E-1
7.385003125E0,-1.596300006E0,2.090399981E0,4.423999786E-1
7.414975000E0,-1.435699940E0,1.971699953E0,4.393999875E-1
7.434996875E0,-1.449800014E0,2.011899948E0,4.107999802E-1
7.464998437E0,-1.480599999E0,2.090899944E0,4.468999803E-1
7.495001562E0,-1.337199926E0,1.992100000E0,4.632000029E-1
7.525003125E0,-1.590699911E0,2.100399971E0,4.851000011E-1
7.554973437E0,-1.694499969E0,2.045599937E0,4.477999806E-1
7.574995312E0,-1.710899949E0,2.036000013E0,4.266999960E-1
7.604996875E0,-1.721699953E0,2.048199892E0,4.521999955E-1
7.635000000E0,-1.506699920E0,1.988199949E0,4.781000018E-1
7.665001562E0,-1.502699971E0,2.079999924E0,4.535999894E-1
7.695003125E0,-1.328400016E0,1.915099978E0,4.630999863E-1
7.724975000E0,-1.300400019E0,1.936100006E0,4.684000015E-1
7.744996875E0,-1.263700008E0,1.961399913E0,4.519999921E-1
7.774998437E0,-1.249300003E0,1.935199976E0,4.059999883E-1
7.805001562E0,-1.429499984E0,2.031599998E0,5.040999651E-1
7.835003125E0,-1.423699975E0,1.946099997E0,4.620999992E-1
7.864973437E0,-1.378999949E0,1.981499910E0,4.685999751E-1
7.884996875E0,-1.367399931E0,1.967999935E0,4.811999798E-1
7.914998437E0,-1.323099971E0,1.888499975E0,4.421999753E-1
7.945000000E0,-1.391999960E0,1.948599935E0,5.173999667E-1
7.975001562E0,-1.379199982E0,1.964299917E0,4.848999977E-1
8.005003125E0,-1.462299943E0,2.077399969E0,4.890999794E-1
8.034975000E0,-1.447399974E0,2.016099930E0,4.734999835E-1
8.054996875E0,-1.375000000E0,2.055700064E0,4.731999934E-1
8.084998437E0,-1.356499910E0,2.192399979E0,4.792999923E-1
8.115001562E0,-1.346400023E0,2.069099903E0,4.535999894E-1
8.145003125E0,-1.364899993E0,2.100899935E0,5.191000104E-1
8.174973437E0,-1.308599949E0,2.019299984E0,4.650999904E-1
8.194995312E0,-1.342499971E0,2.026299953E0,4.341999888E-1
8.224998437E0,-1.393899918E0,2.042099953E0,4.842000008E-1
8.255000000E0,-1.381799936E0,1.955500007E0,4.606999755E-1
8.285001562E0,-1.395699978E0,2.048399925E0,4.741999805E-1
8.315004687E0,-1.359599948E0,1.978899956E0,4.445999861E-1
8.344975000E0,-1.366799951E0,2.034600019E0,4.755999744E-1
8.364996875E0,-1.333699942E0,2.045099974E0,4.527999759E-1
8.394998437E0,-1.345399976E0,1.977799892E0,3.974999785E-1
8.425001562E0,-1.361999989E0,2.058099985E0,4.494999945E-1
8.455003125E0,-1.338400006E0,1.991499901E0,4.370999932E-1
8.484973437E0,-1.350299954E0,2.087599993E0,4.620999992E-1
8.504995312E0,-1.331300020E0,2.099900007E0,4.432999790E-1
8.535000000E0,-1.241400003E0,2.044299841E0,4.285999835E-1
8.565000000E0,-1.230899930E0,2.121999979E0,4.407999814E-1
8.595003125E0,-1.183599949E0,2.024899960E0,4.159999788E-1
8.625004687E0,-1.155699968E0,1.942999959E0,3.933999836E-1
8.654975000E0,-1.098999977E0,1.800999999E0,3.898999989E-1
8.674996875E0,-1.127200007E0,1.740700006E0,3.301999867E-1
8.705000000E0,-1.095199943E0,1.680899978E0,3.299999833E-1
8.735001562E0,-1.091300011E0,1.536099911E0,2.933000028E-1
8.765003125E0,-1.032099962E0,1.509599924E0,2.665999830E-1
8.794973437E0,-9.001999497E-1,1.418900013E0,2.349999994E-1
8.814995312E0,-9.113999605E-1,1.350899935E0,2.334999889E-1
8.844998437E0,-8.567999601E-1,1.260800004E0,2.198999971E-1
8.875000000E0,-7.903999686E-1,1.220000029E0,2.338999957E-1
8.905001562E0,-7.601999640E-1,1.190799952E0,2.026999891E-1
8.935004687E0,-6.904999614E-1,1.051999927E0,1.622999907E-1
8.964975000E0,-6.534000039E-1,1.009699941E0,1.824999899E-1
8.984996875E0,-6.173999906E-1,9.973999858E-1,1.441999972E-1
9.015000000E0,-5.575000048E-1,9.268999696E-1,1.474999934E-1
9.045001562E0,-5.356000066E-1,8.511999846E-1,1.403999925E-1
9.075003125E0,-5.001000166E-1,8.090999722E-1,1.074000001E-1
9.104975000E0,-4.799999893E-1,7.565999627E-1,1.112999991E-1
9.124996875E0,-4.307999909E-1,7.062000036E-1,1.058999971E-1
9.154998437E0,-3.865999877E-1,6.570000052E-1,9.609999508E-2
9.185000000E0,-3.698000014E-1,6.398999691E-1,1.014999971E-1
9.215001562E0,-3.683999777E-1,5.683000088E-1,9.349999577E-2
9.245004687E0,-3.235999942E-1,5.536000133E-1,8.980000019E-2
9.274975000E0,-3.145000041E-1,5.166999698E-1,9.279999882E-2
9.294996875E0,-2.821999788E-1,5.037999749E-1,9.939999878E-2
9.325000000E0,-2.786999941E-1,4.835999906E-1,4.769999906E-2
9.345032812E0,-3.143999875E-1,4.725999832E-1,7.429999858E-2
9.374992187E0,-2.793000042E-1,4.422999918E-1,3.969999775E-2
9.404993750E0,-2.962000072E-1,4.147000015E-1,4.729999974E-2
9.434996875E0,-2.714999914E-1,3.613999784E-1,5.299999937E-2
9.464998437E0,-2.592999935E-1,3.355999887E-1,1.189999934E-2
9.495000000E0,-2.193999887E-1,3.165999949E-1,4.779999703E-2
9.525003125E0,-1.995999962E-1,2.933999896E-1,4.639999941E-2
9.555004687E0,-2.090999931E-1,2.681999803E-1,3.390000015E-2
9.584976562E0,-1.624999940E-1,2.565999925E-1,4.239999875E-2
9.604996875E0,-1.464999914E-1,2.640999854E-1,3.139999881E-2
9.635000000E0,-1.344999969E-1,2.225999981E-1,-1.999999949E-4
9.665001562E0,-1.562999934E-1,1.946999878E-1,3.810000047E-2
9.695003125E0,-1.149000004E-1,2.058999985E-1,7.559999824E-2
9.724975000E0,-8.989999443E-2,2.352999896E-1,6.000000052E-3
9.744996875E0,-1.055999994E-1,1.772999913E-1,5.099999718E-3
9.774998437E0,-7.779999822E-2,1.629000008E-1,5.279999971E-2
9.805000000E0,-8.370000124E-2,1.659999937E-1,1.349999942E-2
9.835003125E0,-1.143999994E-1,1.428999901E-1,1.229999959E-2
9.865004687E0,-8.089999855E-2,1.174999997E-1,3.139999881E-2
9.894975000E0,-1.015999988E-1,1.441999972E-1,-1.860000007E-2
9.914998437E0,-5.959999934E-2,1.193000004E-1,-2.889999934E-2
9.945000000E0,-9.579999745E-2,1.331999898E-1,9.699999355E-3
9.975001562E0,-8.810000122E-2,1.499999911E-1,1.850000024E-2
1.000500312E1,-9.439999610E-2,1.059999987E-1,-1.119999960E-2
1.003497500E1,-6.799999624E-2,8.799999952E-2,-1.999999862E-3
1.005499688E1,-7.440000027E-2,7.479999959E-2,7.400000002E-3
1.008499844E1,-6.179999933E-2,7.069999725E-2,2.669999935E-2
1.011500000E1,-2.909999900E-2,7.360000163E-2,6.499999668E-3
1.014500312E1,-5.639999732E-2,7.979999483E-2,6.300000008E-3
1.017500469E1,-5.069999769E-2,6.319999695E-2,-3.899999894E-3
1.020497500E1,-4.899999872E-2,6.039999798E-2,1.539999992E-2
1.022499688E1,-4.639999941E-2,6.759999692E-2,-1.409999933E-2
1.025500000E1,-4.329999909E-2,6.169999763E-2,4.900000058E-3
1.028500156E1,-5.159999803E-2,6.889999658E-2,-4.999999888E-3
1.031500469E1,-3.819999844E-2,6.379999965E-2,4.299999680E-3
1.034497500E1,-4.679999873E-2,5.209999904E-2,1.399999950E-2
1.036499688E1,-5.539999902E-2,4.129999876E-2,1.399999950E-2
1.039499844E1,-2.339999937E-2,3.779999912E-2,-5.799999926E-3
1.042500156E1,-2.699999837E-3,4.549999908E-2,1.349999942E-2
1.045500313E1,-4.030000046E-2,4.989999905E-2,-4.559999704E-2
1.048497344E1,-4.839999974E-2,0.000000000E0,1.310000010E-2
1.050499531E1,-3.610000014E-2,8.899999782E-3,4.250000045E-2
1.053499844E1,-1.469999924E-2,7.229999453E-2,2.249999903E-2
1.056500000E1,-4.699999932E-3,2.149999887E-2,-3.639999777E-2
1.059500156E1,-3.799999831E-3,-8.200000040E-3,-1.679999940E-2
1.062500469E1,-1.429999992E-2,2.989999950E-2,1.239999942E-2
1.065497500E1,2.309999987E-2,3.619999811E-2,3.170000017E-2
1.067499688E1,3.299999982E-3,6.499999668E-3,1.200000010E-2
1.070499844E1,4.399999976E-3,4.409999773E-2,2.099999925E-3
1.073500156E1,-2.269999869E-2,2.089999989E-2,-2.749999985E-2
1.076500312E1,-1.229999959E-2,3.999999911E-2,1.159999985E-2
1.079497344E1,-2.109999955E-2,4.710000008E-2,1.139999926E-2
1.081499531E1,-1.979999989E-2,3.700000048E-2,-2.459999919E-2
1.084499844E1,-1.040000003E-2,-1.219999976E-2,-3.439999744E-2
1.087500000E1,-2.699999884E-2,7.499999832E-3,4.799999762E-3
1.090500156E1,-4.539999738E-2,2.679999918E-2,-4.409999773E-2
1.093500313E1,-4.399999976E-3,-3.799999831E-3,-2.459999919E-2
1.096497500E1,-1.439999975E-2,-1.389999967E-2,-3.439999744E-2
1.098499688E1,-4.399999976E-3,-3.399999812E-3,-1.469999924E-2
1.101499844E1,-1.339999959E-2,2.469999902E-2,-1.480000000E-2
1.104500156E1,-3.199999779E-2,3.429999948E-2,-2.459999919E-2
1.107500312E1,-1.979999989E-2,2.169999853E-2,-3.460000083E-2
1.110497344E1,2.869999968E-2,1.109999977E-2,-4.449999705E-2
1.112499688E1,1.860000007E-2,9.999999311E-4,4.399999976E-3
1.115499844E1,4.429999739E-2,3.839999810E-2,1.399999950E-2
1.118500000E1,6.239999831E-2,1.840000041E-2,-1.539999992E-2
1.121500156E1,3.019999899E-2,-1.099999994E-3,-3.509999812E-2
1.124500469E1,1.019999944E-2,-1.079999935E-2,-5.699999630E-3
1.127497500E1,-9.300000034E-3,8.499999531E-3,-1.549999975E-2
1.129499688E1,-1.829999872E-2,8.200000040E-3,-1.549999975E-2
1.132499844E1,1.999999949E-4,1.529999916E-2,-1.090000011E-2
1.135500156E1,-8.999999613E-3,-1.439999975E-2,-1.090000011E-2
1.138500312E1,-1.719999872E-2,5.299999844E-3,3.810000047E-2
1.141497344E1,-7.199999876E-3,3.189999983E-2,3.790000081E-2
1.143499531E1,-6.899999920E-3,2.119999938E-2,-2.089999989E-2
1.146499844E1,-2.489999868E-2,-1.929999888E-2,-2.099999972E-2
1.149500000E1,-2.229999937E-2,-8.599999361E-3,-1.109999977E-2
1.152500156E1,-3.159999847E-2,6.999999750E-4,8.399999700E-3
1.155500469E1,-1.999999862E-3,-7.899999619E-3,-1.199999941E-3
1.158497500E1,-9.599999525E-3,-9.300000034E-3,8.499999531E-3
1.160499688E1,9.499999695E-3,9.800000116E-3,8.399999700E-3
1.163500000E1,3.759999946E-2,2.819999866E-2,-1.119999960E-2
1.166500156E1,2.779999934E-2,-1.500000013E-3,8.299999870E-3
1.169500313E1,5.359999835E-2,6.599999964E-3,1.789999940E-2
1.172497344E1,4.270000011E-2,-2.259999886E-2,-1.699999906E-3
1.174499688E1,5.189999938E-2,-4.120000079E-2,8.100000210E-3
1.177499844E1,3.070000000E-2,-9.699999355E-3,8.200000040E-3
1.180500000E1,1.099999994E-3,-1.059999969E-2,-7.999999798E-4
1.183500156E1,-1.999999949E-4,-1.999999949E-4,5.790000036E-2
1.186500313E1,-5.999999703E-4,9.800000116E-3,8.899999782E-3
1.189497500E1,8.299999870E-3,7.999999449E-3,1.860000007E-2
1.191499688E1,-1.399999950E-3,7.599999662E-3,1.850000024E-2
1.194500000E1,-2.089999989E-2,6.300000008E-3,-1.099999994E-3
1.197500156E1,-3.999999899E-4,5.200000014E-3,2.819999866E-2
1.200500312E1,-3.839999810E-2,-1.389999967E-2,3.799999878E-2
1.203497500E1,-2.620000020E-2,-1.279999968E-2,1.860000007E-2
1.205499688E1,3.000000026E-3,-2.169999853E-2,8.799999952E-3
1.208499844E1,-2.479999885E-2,-3.150000051E-2,1.869999990E-2
1.211500000E1,-3.999999724E-3,-1.599999960E-3,1.879999973E-2
1.214500312E1,5.899999756E-3,2.719999850E-2,1.869999990E-2
1.217500469E1,-3.099999856E-3,1.699999906E-2,8.899999782E-3
1.220497500E1,7.100000046E-3,6.399999838E-3,2.850000001E-2
1.222499688E1,-1.269999985E-2,6.899999920E-3,1.869999990E-2
1.225500000E1,-1.219999976E-2,6.799999624E-3,3.830000013E-2
1.228500156E1,2.579999901E-2,4.349999875E-2,1.840000041E-2
1.231500312E1,-1.409999933E-2,-3.649999946E-2,1.750000007E-2
1.234497500E1,-1.319999993E-2,-2.499999851E-2,7.649999857E-2
1.236499688E1,1.659999974E-2,4.699999932E-3,7.660000026E-2
1.239499844E1,4.360000044E-2,-5.699999630E-3,1.759999990E-2
1.242500000E1,3.269999847E-2,-1.459999941E-2,2.749999985E-2
1.245500313E1,2.099999925E-3,-4.199999850E-3,2.749999985E-2
1.248500469E1,-8.100000210E-3,5.499999970E-3,4.710000008E-2
1.251497500E1,1.069999952E-2,-1.399999950E-2,5.689999834E-2
1.253499844E1,1.019999944E-2,4.999999888E-3,6.659999490E-2
1.256500000E1,1.099999994E-3,3.269999847E-2,2.730000019E-2
1.259500156E1,-4.589999840E-2,1.399999950E-3,5.659999698E-2
1.262500313E1,-2.559999935E-2,-8.100000210E-3,4.679999873E-2
1.265497500E1,4.900000058E-3,-7.699999958E-3,1.750000007E-2
1.267499688E1,-2.329999954E-2,-2.620000020E-2,2.740000002E-2
1.270499844E1,-3.599999938E-3,-1.539999992E-2,2.749999985E-2
1.273500156E1,-1.279999968E-2,-1.359999925E-2,5.709999800E-2
1.276500313E1,-1.189999934E-2,-2.259999886E-2,3.749999776E-2
1.279500469E1,2.520000003E-2,-2.699999837E-3,5.709999800E-2
1.282497500E1,-1.699999906E-3,-8.700000122E-3,4.999999655E-4
1.284499844E1,-2.029999904E-2,1.970000006E-2,-9.200000204E-3
1.287500000E1,1.030000020E-2,9.499999695E-3,-9.200000204E-3
1.290500156E1,-1.860000007E-2,9.099999443E-3,-2.879999951E-2
1.293500313E1,-1.779999956E-2,-8.999999845E-4,4.999999655E-4
1.296497500E1,-6.799999624E-3,-8.999999845E-4,-9.200000204E-3
1.298499688E1,2.369999886E-2,-1.019999944E-2,5.999999703E-4
1.301499844E1,2.199999988E-2,-9.300000034E-3,1.040000003E-2
1.304500156E1,2.149999887E-2,0.000000000E0,2.019999921E-2
1.307500312E1,1.069999952E-2,9.499999695E-3,-9.200000204E-3
1.310500469E1,1.919999905E-2,-9.599999525E-3,1.030000020E-2
1.313497500E1,1.759999990E-2,-8.700000122E-3,-9.200000204E-3
1.315499844E1,-1.799999969E-3,-8.200000040E-3,-3.849999979E-2
1.318500000E1,-1.150000002E-2,5.999999703E-4,1.030000020E-2
1.321500156E1,-1.090000011E-2,1.099999994E-3,-2.879999951E-2
1.324500469E1,-9.999999311E-4,-8.599999361E-3,-9.099999443E-3
1.327497500E1,-8.999999845E-4,-7.799999788E-3,-9.099999443E-3
1.329499688E1,-8.999999845E-4,1.799999969E-3,1.040000003E-2
1.332499844E1,4.859999940E-2,3.079999983E-2,-2.979999967E-2
1.335500156E1,-1.939999871E-2,-8.200000040E-3,-4.939999804E-2
1.338500312E1,-4.749999940E-2,-1.719999872E-2,1.919999905E-2
1.341497344E1,1.179999951E-2,4.919999838E-2,1.909999922E-2
1.343499531E1,1.129999943E-2,4.710000008E-2,-1.040000003E-2
1.346499844E1,2.019999921E-2,-1.139999926E-2,-1.040000003E-2
1.349500000E1,1.850000024E-2,-9.999999311E-4,-5.999999703E-4
1.352500156E1,-1.159999985E-2,-1.799999969E-3,8.999999613E-3
1.355500312E1,-3.900000080E-2,6.699999794E-3,-3.019999899E-2
1.358497500E1,-3.729999810E-2,-1.219999976E-2,-1.049999986E-2
1.360499688E1,-4.380000010E-2,1.640000008E-2,-2.029999904E-2
1.363499844E1,-3.059999831E-2,-1.289999951E-2,-4.959999770E-2
1.366500156E1,1.750000007E-2,-1.219999976E-2,9.200000204E-3
1.369500313E1,1.689999923E-2,2.630000003E-2,-1.040000003E-2
1.372497344E1,2.419999987E-2,-1.179999951E-2,-2.999999933E-2
1.374499688E1,2.180000022E-2,-1.079999935E-2,-4.999999655E-4
1.377499844E1,4.639999941E-2,-9.499999695E-3,9.099999443E-3
1.380500000E1,2.469999902E-2,-2.899999963E-3,2.999999851E-4
1.383500156E1,1.359999925E-2,-3.299999982E-3,1.979999989E-2
1.386500469E1,-1.459999941E-2,1.589999907E-2,1.979999989E-2
1.389497500E1,-2.199999988E-2,5.399999674E-3,9.999999776E-3
1.391499688E1,-1.169999968E-2,-4.199999850E-3,2.969999984E-2
1.394499844E1,-8.999999845E-4,-2.329999954E-2,1.989999972E-2
1.397500156E1,-1.030000020E-2,6.099999882E-3,3.959999979E-2
1.400500312E1,-9.399999864E-3,-1.279999968E-2,3.959999979E-2
1.403497500E1,-8.299999870E-3,-1.189999934E-2,3.969999775E-2
1.405499531E1,-1.730000041E-2,-2.099999925E-3,1.030000020E-2
1.408499844E1,2.899999963E-3,-1.599999960E-3,1.040000003E-2
1.411500000E1,4.010000080E-2,1.730000041E-2,4.949999973E-2
1.414500156E1,1.999999955E-2,3.649999946E-2,2.989999950E-2
1.417500469E1,8.399999700E-3,6.300000008E-3,1.989999972E-2
1.420497500E1,-1.059999969E-2,-4.199999850E-3,3.949999809E-2
1.422499688E1,1.909999922E-2,-1.349999942E-2,4.939999804E-2
1.425500000E1,-9.800000116E-3,-2.159999870E-2,3.969999775E-2
1.428500156E1,9.300000034E-3,-1.500000013E-3,6.920000166E-2
1.431500312E1,3.830000013E-2,1.399999950E-3,-8.200000040E-3
1.434501719E1,-2.039999887E-2,-2.740000002E-2,-8.100000210E-3
1.437497656E1,-9.200000204E-3,-5.899999756E-3,2.139999904E-2
1.439499844E1,1.919999905E-2,2.219999954E-2,4.089999944E-2
1.442500000E1,-1.099999994E-2,2.159999870E-2,-1.789999940E-2
1.445500156E1,6.999999750E-3,-7.999999449E-3,-3.759999946E-2
1.448500469E1,-2.099999925E-3,-7.599999662E-3,-3.759999946E-2
1.451497500E1,-1.899999916E-3,-6.899999920E-3,-8.100000210E-3
1.453499844E1,-2.060000040E-2,-6.599999964E-3,1.150000002E-2
1.456500000E1,-3.929999843E-2,3.299999982E-3,1.699999906E-3
1.459500156E1,1.500000013E-3,1.289999951E-2,-7.999999449E-3
1.462500313E1,1.399999950E-3,3.399999812E-3,-1.769999973E-2
1.465497344E1,8.999999845E-4,2.799999900E-3,-7.999999449E-3
1.467499688E1,7.999999798E-4,1.200000010E-2,2.129999921E-2
1.470499844E1,9.699999355E-3,-7.199999876E-3,-8.100000210E-3
1.473500000E1,9.300000034E-3,2.600000007E-3,1.150000002E-2
1.476500156E1,9.300000034E-3,-6.799999624E-3,-3.739999980E-2
1.479500469E1,-1.019999944E-2,-6.599999964E-3,1.150000002E-2
1.482497500E1,1.769999973E-2,2.799999900E-3,1.939999871E-2
1.484499688E1,-3.399999812E-3,1.239999942E-2,-1.999999949E-4
1.487499844E1,-2.799999900E-3,1.899999916E-3,1.929999888E-2
1.490500156E1,1.640000008E-2,1.159999985E-2,9.499999695E-3
1.493500313E1,-3.049999848E-2,1.059999969E-2,-1.999999949E-4
1.496497344E1,-2.999999933E-2,3.999999899E-4,-2.999999851E-4
1.498499688E1,-2.999999933E-2,1.069999952E-2,1.929999888E-2
1.501499844E1,9.099999443E-3,9.699999355E-3,2.899999917E-2
1.504500000E1,1.899999939E-2,-1.030000020E-2,1.919999905E-2
1.507500312E1,8.799999952E-3,-2.859999985E-2,-2.999999851E-4
1.510500469E1,1.730000041E-2,6.999999750E-4,-1.009999961E-2
1.513497500E1,6.099999882E-3,1.989999972E-2,-3.999999899E-4
1.515499688E1,-2.219999954E-2,9.699999355E-3,-3.999999899E-4
1.518500000E1,-1.229999959E-2,-4.999999655E-4,-1.019999944E-2
1.521500156E1,-1.500000013E-3,1.850000024E-2,9.300000034E-3
1.524500312E1,-1.970000006E-2,-9.899999946E-3,-1.009999961E-2
1.527497500E1,9.599999525E-3,8.799999952E-3,-1.019999944E-2
1.529499688E1,9.099999443E-3,-1.019999944E-2,-2.999999851E-4
1.532499844E1,1.840000041E-2,-9.800000116E-3,-1.009999961E-2
1.535500000E1,1.640000008E-2,7.999999798E-4,-2.999999851E-4
1.538500312E1,4.549999908E-2,2.969999984E-2,-2.999999851E-4
1.541500469E1,-4.299999680E-3,8.200000040E-3,-2.989999950E-2
1.544497500E1,-2.290000021E-2,-1.090000011E-2,-2.009999938E-2
1.546499688E1,7.799999788E-3,-1.009999961E-2,9.300000034E-3
1.549500000E1,7.100000046E-3,8.999999613E-3,-1.019999944E-2
1.552500156E1,-3.700000001E-3,-1.049999986E-2,-1.030000020E-2
1.555500312E1,-1.389999967E-2,-9.300000034E-3,-5.920000002E-2
1.558497500E1,5.799999926E-3,-9.300000034E-3,-1.999999955E-2
1.560499688E1,1.539999992E-2,-9.200000204E-3,-1.019999944E-2
1.563499844E1,-2.419999987E-2,-8.799999952E-3,-1.009999961E-2
1.566500000E1,-4.299999680E-3,2.049999870E-2,9.399999864E-3
1.569500313E1,6.099999882E-3,1.919999905E-2,-1.999999955E-2
1.572500469E1,6.300000008E-3,-1.999999949E-4,-1.019999944E-2
1.575497500E1,-1.200000010E-2,1.829999872E-2,-3.969999775E-2
1.577499844E1,-2.099999925E-3,1.750000007E-2,9.200000204E-3
1.580500000E1,8.100000210E-3,7.299999706E-3,6.999999750E-4
1.583500156E1,-1.209999993E-2,-1.069999952E-2,-1.869999990E-2
1.586500313E1,1.779999956E-2,-1.019999944E-2,1.069999952E-2
1.589497500E1,3.549999744E-2,-9.599999525E-3,-8.799999952E-3
1.591499688E1,5.799999926E-3,9.499999695E-3,-8.799999952E-3
1.594499844E1,-1.389999967E-2,1.939999871E-2,-1.860000007E-2
1.597500156E1,1.569999941E-2,-9.099999443E-3,1.079999935E-2
1.600500312E1,1.589999907E-2,1.040000003E-2,-8.799999952E-3
1.603500469E1,-1.229999959E-2,-2.999999851E-4,1.069999952E-2
1.606497500E1,6.000000052E-3,-9.999999747E-5,8.999999845E-4
1.608499688E1,5.799999926E-3,-1.040000003E-2,7.999999798E-4
1.611500000E1,-1.379999984E-2,-1.069999952E-2,1.059999969E-2
1.614500156E1,1.529999916E-2,-4.999999655E-4,1.059999969E-2
1.617500312E1,1.399999950E-2,-9.300000034E-3,-1.860000007E-2
1.620497500E1,-1.640000008E-2,-9.200000204E-3,-1.860000007E-2
1.622499688E1,-6.699999794E-3,-8.700000122E-3,-8.799999952E-3
1.625499844E1,3.199999919E-3,7.999999798E-4,1.069999952E-2
1.628500156E1,-5.799999926E-3,-7.999999449E-3,1.079999935E-2
1.631500312E1,1.379999984E-2,1.129999943E-2,1.979999989E-2
1.634497344E1,-2.469999902E-2,2.960000001E-2,-9.599999525E-3
1.636499531E1,4.900000058E-3,1.040000003E-2,9.999999747E-5
1.639499688E1,-2.319999970E-2,4.999999655E-4,1.979999989E-2
1.642500000E1,-1.279999968E-2,1.970000006E-2,-1.939999871E-2
1.645500156E1,6.999999750E-3,1.789999940E-2,9.800000116E-3
1.648500313E1,-2.600000007E-3,-1.129999943E-2,-1.950000040E-2
1.651497500E1,-1.989999972E-2,-9.499999695E-3,9.999999776E-3
1.653499688E1,-2.999999851E-4,9.999999747E-5,2.960000001E-2
1.656499844E1,-7.999999798E-4,8.599999361E-3,-9.599999525E-3
1.659500156E1,7.799999788E-3,-2.009999938E-2,9.999999747E-5
1.662500313E1,-1.899999916E-3,-1.999999949E-4,9.999999747E-5
1.665497344E1,7.999999449E-3,9.699999355E-3,-3.900000080E-2
1.667499688E1,-1.599999960E-3,0.000000000E0,9.999999747E-5
1.670499844E1,-1.049999986E-2,-9.899999946E-3,1.999999949E-4
1.673500000E1,9.899999946E-3,9.300000034E-3,-9.499999695E-3
1.676500156E1,2.950000018E-2,-1.019999944E-2,-1.939999871E-2
1.679500469E1,-9.999999776E-3,-7.999999798E-4,2.950000018E-2
1.682497500E1,1.840000041E-2,1.879999973E-2,9.899999946E-3
1.684499688E1,2.829999849E-2,8.200000040E-3,-9.699999355E-3
1.687499844E1,1.999999949E-4,-1.109999977E-2,9.999999747E-5
1.690500156E1,1.999999949E-4,-1.069999952E-2,1.970000006E-2
1.693500312E1,-4.999999655E-4,-9.800000116E-3,1.999999949E-4
1.696497500E1,-1.300000004E-3,3.999999899E-4,1.999999949E-4
1.698499531E1,-1.699999906E-3,1.019999944E-2,1.979999989E-2
1.701499844E1,7.699999958E-3,2.769999951E-2,-9.699999355E-3
1.704500000E1,-2.019999921E-2,-1.099999994E-3,9.999999747E-5
1.707500156E1,-9.999999747E-5,8.299999870E-3,9.899999946E-3
1.710500469E1,1.049999986E-2,-1.799999969E-3,-9.599999525E-3
1.713497500E1,9.999999311E-4,-2.099999925E-3,0.000000000E0
1.715499688E1,8.999999845E-4,7.299999706E-3,9.800000116E-3
1.718499844E1,2.089999989E-2,-1.169999968E-2,1.970000006E-2
1.721500156E1,1.099999994E-2,7.699999958E-3,-9.699999355E-3
1.724500312E1,1.049999986E-2,-1.899999916E-3,9.899999946E-3
1.727497344E1,3.739999980E-2,-1.300000004E-3,0.000000000E0
1.729499531E1,-2.039999887E-2,-1.059999969E-2,-1.939999871E-2
1.732499844E1,8.899999782E-3,-2.149999887E-2,2.919999883E-2
1.735500000E1,-7.999999798E-4,-1.049999986E-2,1.950000040E-2
1.738500156E1,8.899999782E-3,-2.999999851E-4,9.699999355E-3
1.741500469E1,1.950000040E-2,2.809999883E-2,1.950000040E-2
1.744497500E1,1.019999944E-2,2.809999883E-2,-9.800000116E-3
1.746499688E1,-1.919999905E-2,-1.049999986E-2,-1.960000023E-2
1.749500000E1,-7.799999788E-3,-9.699999355E-3,2.939999849E-2
1.752500156E1,1.159999985E-2,3.900000080E-2,4.899999872E-2
1.755500313E1,1.090000011E-2,1.640000008E-2,9.499999695E-3
1.758497500E1,6.999999750E-4,-1.229999959E-2,9.599999525E-3
1.760499531E1,1.500000013E-3,-1.150000002E-2,-9.999999747E-5
1.763499844E1,1.109999977E-2,7.599999662E-3,1.939999871E-2
1.766500000E1,1.189999934E-2,1.709999889E-2,-9.899999946E-3
1.769500312E1,-6.999999750E-3,-2.300000051E-3,1.939999871E-2
1.772500469E1,-7.599999662E-3,-3.199999919E-3,9.499999695E-3
1.775497500E1,2.889999934E-2,-1.299999934E-2,-2.960000001E-2
1.777499688E1,8.799999952E-3,-1.249999925E-2,2.909999900E-2
1.780500000E1,1.889999956E-2,8.899999782E-3,1.099999994E-3
1.783500156E1,2.699999884E-2,-1.059999969E-2,-1.840000041E-2
1.786500312E1,-3.000000026E-3,-9.999999776E-3,-8.599999361E-3
1.789497344E1,-2.699999837E-3,1.999999949E-4,-8.499999531E-3
1.791499688E1,-2.600000007E-3,-9.099999443E-3,-8.499999531E-3
1.794499844E1,-2.399999881E-3,1.199999941E-3,-3.790000081E-2
1.797500000E1,7.499999832E-3,1.999999955E-2,-2.809999883E-2
1.800500156E1,-1.099999994E-2,1.019999944E-2,-2.809999883E-2
1.803500469E1,-9.999999776E-3,-9.200000204E-3,-8.499999531E-3
1.806497500E1,-1.899999939E-2,1.069999952E-2,-8.399999700E-3
1.808499688E1,8.999999845E-4,-8.799999952E-3,-1.819999889E-2
1.811500000E1,1.030000020E-2,-8.299999870E-3,-2.799999900E-2
1.814500156E1,2.939999849E-2,-8.399999700E-3,1.300000004E-3
1.817500312E1,9.399999864E-3,1.059999969E-2,1.300000004E-3
1.820497500E1,1.799999923E-2,4.999999655E-4,-1.829999872E-2
1.822499688E1,1.759999990E-2,-8.799999952E-3,-2.809999883E-2
1.825499844E1,-2.099999925E-3,1.069999952E-2,1.109999977E-2
1.828500000E1,1.659999974E-2,3.999999899E-4,-2.809999883E-2
1.831500312E1,-3.499999875E-3,-1.939999871E-2,2.029999904E-2
1.834500469E1,-3.399999812E-3,-9.200000204E-3,1.049999986E-2
1.837497500E1,-1.209999993E-2,1.960000023E-2,1.049999986E-2
1.839499688E1,7.100000046E-3,3.739999980E-2,2.019999921E-2
1.842500000E1,-2.209999971E-2,-1.139999926E-2,-1.899999939E-2
1.845500156E1,-1.079999935E-2,-1.049999986E-2,3.009999916E-2
1.848500313E1,-1.899999916E-3,2.850000001E-2,2.019999921E-2
1.851497500E1,3.449999914E-2,6.899999920E-3,-9.300000034E-3
1.853499688E1,4.799999762E-3,-1.200000010E-2,-1.909999922E-2
1.856499844E1,4.600000102E-3,-2.499999944E-3,3.999999899E-4
1.859500000E1,5.899999756E-3,6.699999794E-3,-1.909999922E-2
1.862500313E1,1.549999975E-2,-2.499999944E-3,-9.300000034E-3
1.865500469E1,-1.310000010E-2,6.699999794E-3,1.019999944E-2
1.868497500E1,1.719999872E-2,6.300000008E-3,3.999999899E-4
1.870499688E1,7.100000046E-3,-3.700000001E-3,-9.300000034E-3
1.873500000E1,6.899999920E-3,-3.000000026E-3,1.019999944E-2
1.876500156E1,6.499999668E-3,1.529999916E-2,1.009999961E-2
1.879500312E1,2.469999902E-2,-1.359999925E-2,-1.919999905E-2
1.882497500E1,1.579999924E-2,-1.399999950E-2,3.680000082E-2
1.884499688E1,-3.999999724E-3,-1.339999959E-2,7.499999832E-3
1.887499844E1,-3.179999813E-2,-1.239999942E-2,2.719999850E-2
1.890500156E1,6.999999750E-3,7.100000046E-3,-1.189999934E-2
1.893500312E1,2.429999970E-2,5.899999756E-3,2.699999884E-2
1.896500469E1,-5.299999844E-3,-1.389999967E-2,-2.300000051E-3
1.899497500E1,-2.279999852E-2,-4.299999680E-3,3.689999878E-2
1.901499688E1,6.300000008E-3,5.200000014E-3,-2.300000051E-3
1.904500000E1,-1.229999959E-2,-1.409999933E-2,7.400000002E-3
1.907500156E1,-2.699999837E-3,-4.100000020E-3,1.730000041E-2
1.910500469E1,-2.309999987E-2,-4.399999976E-3,-2.300000051E-3
1.913497500E1,6.099999882E-3,-1.399999950E-2,3.689999878E-2
1.915499688E1,-3.499999875E-3,1.469999924E-2,-1.209999993E-2
1.918499844E1,-3.299999982E-3,1.399999950E-2,1.709999889E-2
1.921500000E1,-3.499999875E-3,3.700000001E-3,7.299999706E-3
1.924500312E1,1.569999941E-2,-5.299999844E-3,2.689999901E-2
1.927497344E1,3.350000083E-2,-4.499999806E-3,-2.300000051E-3
1.929499688E1,3.899999894E-3,-1.370000001E-2,1.719999872E-2
1.932499688E1,-5.599999800E-3,-1.370000001E-2,1.850000024E-2
1.934503125E1,3.499999875E-3,-3.399999812E-3,2.840000018E-2
1.937499063E1,1.299999934E-2,2.479999885E-2,1.850000024E-2
1.940499375E1,-5.799999926E-3,-1.589999907E-2,-1.199999941E-3
1.943499531E1,-2.329999954E-2,-1.420000009E-2,2.829999849E-2
1.946499688E1,2.620000020E-2,5.299999844E-3,8.700000122E-3
1.949499844E1,5.899999756E-3,1.370000001E-2,8.599999361E-3
1.952500156E1,-2.279999852E-2,-5.200000014E-3,-9.999999311E-4
1.955500313E1,1.609999873E-2,4.999999888E-3,8.700000122E-3
1.958497344E1,-4.999999888E-3,-4.600000102E-3,8.700000122E-3
1.960499531E1,1.349999942E-2,-1.379999984E-2,4.789999872E-2
1.963499844E1,-6.000000052E-3,3.399999812E-2,8.599999361E-3
1.966500000E1,-5.699999630E-3,1.379999984E-2,1.840000041E-2
1.969500156E1,1.349999942E-2,-2.479999885E-2,-2.070000023E-2
1.972500312E1,-3.519999981E-2,-4.600000102E-3,8.700000122E-3
1.975497500E1,-5.699999630E-3,-4.199999850E-3,-9.999999311E-4
1.977499688E1,3.189999983E-2,-1.349999942E-2,1.850000024E-2
1.980499844E1,1.179999951E-2,-2.099999972E-2,-1.399999950E-3
1.983500156E1,9.999999311E-4,-3.830000013E-2,-1.109999977E-2
1.986500312E1,9.999999311E-4,-2.809999883E-2,-1.199999941E-3
1.989497344E1,9.899999946E-3,2.969999984E-2,-2.089999989E-2
1.991499688E1,9.499999695E-3,9.699999355E-3,-2.099999972E-2
1.994499844E1,-8.700000122E-3,2.850000001E-2,8.299999870E-3
1.997500000E1,-2.669999935E-2,8.100000210E-3,8.299999870E-3
2.000500156E1,-3.659999743E-2,3.680000082E-2,-2.109999955E-2
2.003500469E1,-3.350000083E-2,-1.260000002E-2,-2.109999955E-2
2.006497500E1,-1.329999976E-2,-2.229999937E-2,8.299999870E-3
2.008499688E1,3.500000015E-2,-2.139999904E-2,-1.399999950E-3
2.011500000E1,1.439999975E-2,-6.999999750E-4,-1.109999977E-2
2.014500156E1,5.169999972E-2,8.999999613E-3,8.399999700E-3
2.017500312E1,3.839999810E-2,9.200000204E-3,-3.079999983E-2
2.020497344E1,-9.699999355E-3,8.799999952E-3,-3.079999983E-2
2.022499688E1,-4.930000007E-2,4.679999873E-2,-2.109999955E-2
2.025499844E1,-1.699999906E-2,-2.399999881E-3,1.799999923E-2
2.028500000E1,-2.559999935E-2,-1.289999951E-2,-1.500000013E-3
2.031500156E1,3.700000001E-3,-4.499999806E-3,9.499999695E-3
2.034500312E1,-6.599999964E-3,-4.299999680E-3,9.499999695E-3
2.037497500E1,2.969999984E-2,-2.219999954E-2,-9.999999776E-3
2.039499688E1,-1.840000041E-2,-2.139999904E-2,2.929999866E-2
2.042500000E1,5.999999703E-4,-9.999999776E-3,3.920000046E-2
2.045500156E1,9.899999946E-3,2.609999850E-2,1.929999888E-2
2.048500313E1,-8.799999952E-3,-5.699999630E-3,-1.019999944E-2
2.051497500E1,-1.740000024E-2,-1.459999941E-2,2.899999917E-2
2.053499688E1,-1.669999957E-2,4.699999932E-3,-2.999999851E-4
2.056499844E1,1.169999968E-2,-5.200000014E-3,9.399999864E-3
2.059500000E1,-7.999999449E-3,-2.319999970E-2,1.929999888E-2
2.062500156E1,1.199999941E-3,-1.289999951E-2,9.499999695E-3
2.065500469E1,1.099999994E-3,-2.119999938E-2,-9.899999946E-3
2.068497500E1,1.970000006E-2,-1.099999994E-2,9.699999355E-3
2.070499688E1,-3.859999776E-2,7.899999619E-3,9.599999525E-3
2.073500000E1,-2.559999935E-2,2.579999901E-2,9.599999525E-3
2.076500156E1,-2.489999868E-2,-2.899999963E-3,-9.999999747E-5
2.079500312E1,5.200000014E-3,6.499999668E-3,1.939999871E-2
2.082497500E1,5.200000014E-3,1.589999907E-2,-1.970000006E-2
2.084499531E1,1.519999932E-2,-4.799999762E-3,-1.979999989E-2
2.087499844E1,1.469999924E-2,-1.379999984E-2,-1.999999949E-4
2.090500156E1,4.199999850E-3,-1.329999976E-2,1.939999871E-2
2.093500312E1,-2.379999869E-2,-2.199999988E-2,9.699999355E-3
2.096500469E1,-1.420000009E-2,-1.079999935E-2,0.000000000E0
2.099497500E1,-2.159999870E-2,-1.929999888E-2,-9.499999695E-3
2.101499688E1,1.679999940E-2,-8.999999613E-3,1.999999949E-4
2.104500000E1,-1.159999985E-2,1.030000020E-2,9.999999776E-3
2.107500156E1,-1.699999906E-3,1.019999944E-2,9.999999776E-3
2.110500312E1,1.699999906E-2,-1.019999944E-2,1.970000006E-2
2.113497344E1,2.449999936E-2,-1.300000004E-3,9.800000116E-3
2.115499688E1,2.339999937E-2,7.999999449E-3,9.699999355E-3
2.118499844E1,-1.630000025E-2,-7.999999798E-4,-9.699999355E-3
2.121500000E1,-6.399999838E-3,-9.899999946E-3,2.939999849E-2
2.124500312E1,-2.620000020E-2,1.999999949E-4,-9.699999355E-3
2.127500469E1,3.299999982E-3,3.759999946E-2,9.699999355E-3
2.130497500E1,-1.589999907E-2,-2.159999870E-2,-2.199999988E-3
2.132499688E1,-2.419999987E-2,-4.969999939E-2,2.730000019E-2
2.135500000E1,6.199999712E-3,9.999999776E-3,5.680000037E-2
2.138500156E1,1.439999975E-2,2.859999985E-2,7.699999958E-3
2.141500313E1,3.799999831E-3,-1.040000003E-2,-1.189999934E-2
2.144497500E1,1.260000002E-2,-1.040000003E-2,-2.099999925E-3
2.146499688E1,2.199999988E-3,-1.099999994E-3,2.719999850E-2
2.149499844E1,-1.589999907E-2,-1.139999926E-2,3.700000048E-2
2.152500000E1,5.200000014E-3,7.299999706E-3,2.719999850E-2
2.155500313E1,-1.269999985E-2,-1.249999925E-2,1.740000024E-2
2.158500469E1,1.669999957E-2,-1.289999951E-2,-1.200000010E-2
2.161497500E1,6.599999964E-3,-3.000000026E-3,1.730000041E-2
2.163499688E1,6.300000008E-3,-1.219999976E-2,7.599999662E-3
2.166500000E1,2.520000003E-2,-1.260000002E-2,2.709999867E-2
2.169500156E1,1.359999925E-2,-1.139999926E-2,4.679999873E-2
2.172500312E1,-6.099999882E-3,-1.099999994E-2,1.740000024E-2
2.175497344E1,3.299999982E-3,-2.029999904E-2,2.730000019E-2
2.177499688E1,-6.199999712E-3,-1.019999944E-2,2.730000019E-2
2.180499844E1,-5.299999844E-3,1.189999934E-2,7.999999798E-4
2.183500156E1,1.349999942E-2,1.059999969E-2,-2.869999968E-2
2.186500312E1,-1.649999991E-2,1.049999986E-2,6.999999750E-4
2.189500469E1,-6.499999668E-3,6.999999750E-4,-2.869999968E-2
2.192497500E1,-6.599999964E-3,9.699999355E-3,-1.889999956E-2
2.194499844E1,-6.300000008E-3,9.699999355E-3,-3.849999979E-2
2.197500000E1,2.699999837E-3,-8.899999782E-3,-1.889999956E-2
2.200500156E1,-7.100000046E-3,1.199999941E-3,-3.839999810E-2
2.203500469E1,-2.479999885E-2,-7.699999958E-3,-1.869999990E-2
2.206497500E1,-2.459999919E-2,1.899999916E-3,7.999999798E-4
2.208499688E1,-1.499999966E-2,1.209999993E-2,7.999999798E-4
2.211499844E1,-1.370000001E-2,-7.199999876E-3,-8.799999952E-3
2.214500156E1,-3.700000001E-3,-6.799999624E-3,-8.799999952E-3
2.217500312E1,5.499999970E-3,-6.199999712E-3,8.999999845E-4
2.220497344E1,5.200000014E-3,1.349999942E-2,2.060000040E-2
2.222499688E1,5.399999674E-3,2.279999852E-2,-8.799999952E-3
2.225499844E1,4.999999888E-3,2.039999887E-2,6.999999750E-4
2.228500000E1,-6.199999712E-3,-1.819999889E-2,-1.879999973E-2
2.231500312E1,1.339999959E-2,-5.699999630E-3,8.799999952E-3
2.234500312E1,-7.499999832E-3,3.329999745E-2,-9.999999311E-4
2.237497500E1,-8.499999531E-3,-6.399999838E-3,-2.070000023E-2
2.239499688E1,1.199999941E-3,-6.199999712E-3,8.700000122E-3
2.242500000E1,2.999999851E-4,-5.799999926E-3,-3.039999865E-2
2.245500156E1,0.000000000E0,-6.399999838E-3,-1.090000011E-2
2.248500313E1,-8.899999782E-3,3.269999847E-2,-1.090000011E-2
2.251497344E1,1.999999862E-3,2.699999837E-3,-1.090000011E-2
2.253499688E1,1.899999916E-3,2.699999837E-3,-4.030000046E-2
2.256499844E1,-1.850000024E-2,-6.599999964E-3,-2.070000023E-2
2.259500000E1,-8.299999870E-3,2.899999963E-3,-1.099999994E-3
2.262500156E1,2.199999988E-3,1.229999959E-2,-1.090000011E-2
2.265500469E1,2.399999881E-3,-6.599999964E-3,-1.079999935E-2
2.268497500E1,1.209999993E-2,-6.199999712E-3,-1.079999935E-2
2.270499688E1,-3.689999878E-2,3.399999812E-3,-2.060000040E-2
2.273499844E1,-6.799999624E-3,-5.599999800E-3,-3.039999865E-2
2.276500156E1,1.219999976E-2,3.289999813E-2,-1.079999935E-2
2.279500312E1,2.199999988E-3,1.179999951E-2,-1.090000011E-2
2.282497344E1,-2.730000019E-2,6.999999750E-4,1.970000006E-2
2.284499531E1,-1.630000025E-2,9.999999311E-4,-1.939999871E-2
2.287499844E1,-5.899999756E-3,9.999999776E-3,9.999999747E-5
2.290500000E1,1.339999959E-2,1.970000006E-2,9.899999946E-3
2.293500156E1,4.499999806E-3,9.099999443E-3,-9.699999355E-3
2.296500469E1,-5.799999926E-3,-1.090000011E-2,9.800000116E-3
2.299497500E1,2.699999837E-3,-1.069999952E-2,9.699999355E-3
2.301499688E1,3.070000000E-2,-8.999999845E-4,9.699999355E-3
2.304500000E1,1.189999934E-2,-1.109999977E-2,9.699999355E-3
2.307500156E1,3.199999919E-3,-7.999999798E-4,9.800000116E-3
2.310500313E1,-1.699999906E-2,7.999999449E-3,-9.800000116E-3
2.313497344E1,-2.489999868E-2,-7.999999798E-4,0.000000000E0
2.315499688E1,1.359999925E-2,-1.009999961E-2,0.000000000E0
2.318499844E1,-6.499999668E-3,3.999999899E-4,1.970000006E-2
2.321500000E1,1.189999934E-2,-8.499999531E-3,9.899999946E-3
2.324500312E1,1.090000011E-2,2.919999883E-2,9.800000116E-3
2.327500469E1,1.099999994E-3,3.539999947E-2,-3.949999809E-2
2.330497500E1,-6.699999794E-3,-2.300000051E-3,-2.999999851E-4
2.332499688E1,-1.579999924E-2,-1.799999969E-3,1.929999888E-2
2.335500000E1,-5.499999970E-3,2.559999935E-2,-1.999999955E-2
2.338500156E1,2.279999852E-2,-1.279999968E-2,-1.019999944E-2
2.341500313E1,1.269999985E-2,-1.069999952E-2,-2.960000001E-2
2.344497500E1,-6.000000052E-3,-1.019999944E-2,-1.979999989E-2
2.346499688E1,-4.369999841E-2,-9.699999355E-3,-9.999999747E-5
2.349499844E1,-2.239999920E-2,9.899999946E-3,-9.800000116E-3
2.352500000E1,7.899999619E-3,2.989999950E-2,9.699999355E-3
2.355500156E1,5.329999700E-2,8.799999952E-3,-3.940000013E-2
2.358500469E1,5.099999905E-2,9.399999864E-3,-1.979999989E-2
2.361497500E1,3.729999810E-2,1.809999906E-2,-1.999999955E-2
2.363499688E1,7.499999832E-3,-1.069999952E-2,-1.989999972E-2
2.366500000E1,2.559999935E-2,-1.019999944E-2,-2.999999851E-4
2.369500156E1,5.899999756E-3,0.000000000E0,-2.999999851E-4
2.372500312E1,-2.799999900E-3,-9.800000116E-3,-2.999999851E-4
2.375497344E1,-4.899999872E-2,2.999999851E-4,9.499999695E-3
2.377499688E1,-4.679999873E-2,3.999999899E-4,-9.899999946E-3
2.380499844E1,-4.399999976E-2,3.849999979E-2,1.899999916E-3
2.383500000E1,-3.280000016E-2,-1.300000004E-3,-1.769999973E-2
2.386500312E1,-6.209999695E-2,-1.119999960E-2,-5.689999834E-2
2.389500469E1,-9.800000116E-3,-4.639999941E-2,2.199999988E-3
2.392497500E1,-3.799999878E-2,-3.460000083E-2,-7.299999706E-3
2.394499844E1,1.090000011E-2,-3.599999938E-3,-2.679999918E-2
2.397500000E1,-9.999999747E-5,6.599999964E-3,-2.669999935E-2
2.400500156E1,3.819999844E-2,1.599999890E-2,-7.199999876E-3
2.403500469E1,-7.999999798E-4,2.369999886E-2,-1.719999872E-2
2.406497500E1,-2.850000001E-2,4.140000045E-2,-7.499999832E-3
2.408499688E1,-8.499999531E-3,4.849999771E-2,-1.750000007E-2
2.411499844E1,-1.759999990E-2,1.659999974E-2,1.799999969E-3
2.414500000E1,-2.789999917E-2,-1.329999976E-2,-7.899999619E-3
2.417500156E1,9.999999311E-4,-2.129999921E-2,-2.740000002E-2
2.420500469E1,4.869999737E-2,-2.939999849E-2,1.999999862E-3
2.423497500E1,3.680000082E-2,1.030000020E-2,-1.750000007E-2
2.425499688E1,7.100000046E-3,-3.689999878E-2,-2.719999850E-2
2.428500000E1,-3.999999911E-2,-4.470000044E-2,2.199999988E-2
2.431500156E1,-9.200000204E-3,4.349999875E-2,-9.599999525E-3
2.434504688E1,-1.939999871E-2,3.059999831E-2,-6.870000064E-2
2.437497344E1,-2.740000002E-2,-7.799999788E-3,-4.899999872E-2
2.439499688E1,-2.609999850E-2,1.139999926E-2,-5.879999697E-2
2.442499844E1,-3.379999846E-2,-8.499999531E-3,-4.899999872E-2
2.445500000E1,-1.260000002E-2,0.000000000E0,0.000000000E0
2.448500313E1,6.699999794E-3,1.929999888E-2,-3.929999843E-2
2.451500469E1,3.469999880E-2,2.679999918E-2,-1.989999972E-2
2.454497500E1,3.359999880E-2,-1.159999985E-2,-4.930000007E-2
2.456499688E1,3.299999982E-2,-2.099999925E-3,-2.969999984E-2
2.459500000E1,3.959999979E-2,-1.059999969E-2,-3.949999809E-2
2.462500156E1,3.790000081E-2,-2.869999968E-2,-6.879999489E-2
2.465500312E1,-2.300000051E-3,-2.520000003E-2,-2.929999866E-2
2.468497500E1,-1.229999959E-2,2.410000004E-2,-2.929999866E-2
2.470499688E1,-2.799999900E-3,-5.200000014E-3,-4.889999703E-2
2.473499844E1,5.599999800E-3,2.319999970E-2,-4.899999872E-2
2.476500000E1,6.699999794E-3,3.170000017E-2,-3.929999843E-2
2.479500312E1,-1.040000003E-2,-7.299999706E-3,-4.910000041E-2
2.482500469E1,9.999999776E-3,-8.499999531E-3,-2.049999870E-2
2.485497500E1,-8.599999361E-3,1.999999955E-2,-2.060000040E-2
2.487499688E1,-1.759999990E-2,1.929999888E-2,-3.039999865E-2
2.490500000E1,-2.789999917E-2,-1.999999949E-4,-4.999999702E-2
2.493500156E1,-7.499999832E-3,-9.800000116E-3,-4.019999877E-2
2.496500313E1,2.099999925E-3,0.000000000E0,-1.079999935E-2
2.499497344E1,-6.899999920E-3,-9.999999776E-3,-1.079999935E-2
2.501499688E1,-6.599999964E-3,-9.999999747E-5,-3.039999865E-2
2.504499844E1,-1.569999941E-2,-9.300000034E-3,-4.010000080E-2
2.507500156E1,-3.219999745E-2,-2.769999951E-2,8.999999613E-3
2.510500313E1,-1.289999951E-2,1.999999862E-3,-2.029999904E-2
2.513497344E1,6.149999797E-2,3.049999848E-2,-3.029999882E-2
2.515499531E1,4.939999804E-2,1.989999972E-2,-3.039999865E-2
2.518499844E1,1.909999922E-2,-1.869999990E-2,-3.039999865E-2
2.521500000E1,1.750000007E-2,-8.299999870E-3,1.860000007E-2
2.524500156E1,2.699999884E-2,2.950000018E-2,8.599999361E-3
2.527500312E1,6.699999794E-3,-4.999999655E-4,-1.090000011E-2
2.530497500E1,-3.700000001E-3,-1.099999994E-2,-9.999999311E-4
2.532499688E1,-3.499999875E-3,-5.999999703E-4,-2.049999870E-2
2.535499844E1,-4.189999774E-2,-8.999999845E-4,8.799999952E-3
2.538500156E1,-3.019999899E-2,8.399999700E-3,8.799999952E-3
2.541500313E1,-1.750000007E-2,1.740000024E-2,1.860000007E-2
2.544497344E1,-1.539999992E-2,1.669999957E-2,-4.010000080E-2
2.546499531E1,-3.350000083E-2,-1.329999976E-2,-2.049999870E-2
2.549499688E1,1.489999983E-2,6.000000052E-3,1.860000007E-2
2.552500000E1,2.319999970E-2,-1.289999951E-2,-3.029999882E-2
2.555500156E1,3.299999982E-3,-2.109999955E-2,-7.999999798E-4
2.558500469E1,-2.569999918E-2,-3.979999945E-2,1.879999973E-2
2.561497500E1,3.219999745E-2,-9.499999695E-3,-6.999999750E-4
2.563499688E1,5.889999866E-2,-9.099999443E-3,1.879999973E-2
2.566499844E1,1.970000006E-2,9.899999946E-3,8.999999613E-3
2.569500156E1,-1.819999889E-2,1.759999990E-2,-8.999999845E-4
2.572500312E1,-5.790000036E-2,7.899999619E-3,-8.999999845E-4
2.575497344E1,-3.619999811E-2,6.899999920E-3,-2.049999870E-2
2.577499688E1,-6.499999668E-3,6.599999964E-3,-1.069999952E-2
2.580499844E1,-6.399999838E-3,-1.310000010E-2,-1.199999941E-3
2.583500000E1,-6.699999794E-3,-1.200000010E-2,-1.099999994E-3
2.586500156E1,7.019999623E-2,-1.150000002E-2,2.819999866E-2
2.589500469E1,8.700000122E-3,-1.199999941E-3,8.599999361E-3
2.592497500E1,6.999999750E-3,8.999999613E-3,-1.099999994E-3
2.594499688E1,-1.239999942E-2,-1.059999969E-2,1.840000041E-2
2.597499844E1,1.589999907E-2,-9.800000116E-3,2.819999866E-2
2.600500156E1,1.519999932E-2,-9.699999355E-3,-2.070000023E-2
2.603500313E1,-1.409999933E-2,-8.899999782E-3,-1.099999994E-3
2.606497344E1,1.489999983E-2,6.999999750E-4,8.599999361E-3
2.608499688E1,-4.409999773E-2,9.899999946E-3,8.599999361E-3
2.611499844E1,-4.160000011E-2,4.629999772E-2,4.759999737E-2
2.614500000E1,-2.950000018E-2,4.299999774E-2,-2.109999955E-2
2.617500156E1,-9.499999695E-3,-4.289999977E-2,1.819999889E-2
2.620500312E1,-5.999999703E-4,7.799999788E-3,4.769999906E-2
2.623497500E1,2.539999969E-2,1.640000008E-2,8.299999870E-3
2.625499688E1,2.429999970E-2,-1.229999959E-2,-1.119999960E-2
2.628499844E1,-2.229999937E-2,-2.039999887E-2,-1.099999994E-2
2.631500156E1,-1.950000040E-2,-9.599999525E-3,-1.599999960E-3
2.634500312E1,-2.889999934E-2,1.970000006E-2,-1.599999960E-3
2.637497344E1,-2.520000003E-2,2.779999934E-2,8.100000210E-3
2.639499688E1,3.899999894E-3,3.590000048E-2,1.779999956E-2
2.642499844E1,-1.539999992E-2,3.559999913E-2,1.769999973E-2
2.645500000E1,5.059999973E-2,1.449999958E-2,1.759999990E-2
2.648500313E1,7.649999857E-2,2.410000004E-2,-1.189999934E-2
2.651500469E1,5.109999701E-2,-5.699999630E-3,7.499999832E-3
2.654497500E1,4.889999703E-2,-2.419999987E-2,3.689999878E-2
2.656499688E1,6.549999863E-2,-2.229999937E-2,2.719999850E-2
2.659499844E1,3.219999745E-2,-1.030000020E-2,7.699999958E-3
2.662500156E1,3.209999949E-2,-9.399999864E-3,-1.999999862E-3
2.665500312E1,-1.620000042E-2,-8.700000122E-3,-1.169999968E-2
2.668497344E1,-1.499999966E-2,1.399999950E-3,-2.139999904E-2
2.670499688E1,-5.319999903E-2,8.999999845E-4,7.899999619E-3
2.673499844E1,-1.048999950E-1,3.689999878E-2,2.740000002E-2
2.676500000E1,-8.109999448E-2,3.570000082E-2,-1.899999916E-3
2.679500312E1,-5.499999970E-2,1.469999924E-2,-1.169999968E-2
2.682500469E1,-1.480000000E-2,-5.899999756E-3,3.999999899E-4
2.685497500E1,4.999999888E-3,1.229999959E-2,1.989999972E-2
2.687499688E1,2.349999920E-2,-6.999999750E-3,2.969999984E-2
2.690500000E1,-6.499999668E-3,3.150000051E-2,2.960000001E-2
2.693500156E1,2.009999938E-2,-1.669999957E-2,-1.929999888E-2
2.696500313E1,2.850000001E-2,-7.409999520E-2,1.989999972E-2
2.699497500E1,9.119999409E-2,-5.900000036E-2,3.979999945E-2
2.701499688E1,4.969999939E-2,-1.899999939E-2,1.040000003E-2
2.704499844E1,9.999999776E-3,-8.399999700E-3,5.999999703E-4
2.707500000E1,-1.889999956E-2,1.040000003E-2,2.999999933E-2
2.710500313E1,-3.810000047E-2,4.769999906E-2,3.969999775E-2
2.713500469E1,-5.409999937E-2,5.279999971E-2,1.979999989E-2
2.716497500E1,-2.300000051E-3,3.209999949E-2,2.950000018E-2
2.718499844E1,-3.249999881E-2,4.979999736E-2,2.939999849E-2
2.721500000E1,-1.299999934E-2,-1.819999889E-2,-4.889999703E-2
2.724500156E1,-2.219999954E-2,-6.430000067E-2,6.889999658E-2
2.727500312E1,3.249999881E-2,-1.310000010E-2,3.949999809E-2
2.730497500E1,-8.200000040E-3,-2.139999904E-2,-1.899999916E-3
2.732499688E1,1.209999993E-2,-1.109999977E-2,-1.899999916E-3
2.735499844E1,-2.469999902E-2,-9.699999355E-3,-1.699999906E-3
2.738500156E1,-1.420000009E-2,1.999999955E-2,7.999999449E-3
2.741500313E1,-1.509999949E-2,9.200000204E-3,2.759999968E-2
2.744500469E1,4.199999850E-3,3.769999743E-2,7.899999619E-3
2.747497500E1,2.199999988E-3,2.499999851E-2,2.719999850E-2
2.749499688E1,-2.599999867E-2,4.259999841E-2,1.719999872E-2
2.752499844E1,-2.529999986E-2,2.149999887E-2,4.659999907E-2
2.755500156E1,-3.130000085E-2,1.869999990E-2,2.679999918E-2
2.758500469E1,-1.159999985E-2,-1.150000002E-2,7.100000046E-3
2.761497344E1,-1.929999888E-2,-3.839999810E-2,7.400000002E-3
2.763499688E1,2.840000018E-2,-3.680000082E-2,1.730000041E-2
2.766499844E1,1.730000041E-2,-4.449999705E-2,-1.189999934E-2
2.769500000E1,1.589999907E-2,-1.249999925E-2,-1.169999968E-2
2.772500312E1,-1.370000001E-2,-1.159999985E-2,-2.139999904E-2
2.775500469E1,-3.209999949E-2,-1.059999969E-2,7.999999449E-3
2.778497500E1,-2.089999989E-2,1.860000007E-2,3.739999980E-2
2.780499844E1,-9.800000116E-3,9.399999864E-3,4.999999655E-4
2.783500000E1,-4.519999772E-2,1.730000041E-2,-9.300000034E-3
2.786500000E1,-3.509999812E-2,3.610000014E-2,-1.919999905E-2
2.789500313E1,3.999999724E-3,2.479999885E-2,1.999999949E-4
2.792497500E1,2.309999987E-2,2.290000021E-2,9.899999946E-3
2.794499688E1,2.290000021E-2,3.199999919E-3,-2.929999866E-2
2.797499844E1,4.910000041E-2,-5.099999718E-3,9.999999747E-5
2.800500000E1,8.999999613E-3,-4.399999976E-3,-9.599999525E-3
2.803500313E1,-1.799999969E-3,-2.219999954E-2,-1.929999888E-2
2.806497344E1,8.399999700E-3,-1.179999951E-2,-2.899999917E-2
2.808499531E1,1.819999889E-2,-1.139999926E-2,2.999999851E-4
2.811499844E1,8.100000210E-3,-1.399999950E-3,1.009999961E-2
2.814500000E1,9.899999946E-3,1.730000041E-2,-2.899999917E-2
2.817500156E1,-4.580000043E-2,-1.159999985E-2,-9.300000034E-3
2.820500312E1,-3.359999880E-2,-1.899999916E-3,3.969999775E-2
2.823497500E1,4.600000102E-3,6.209999695E-2,9.999999747E-5
2.825499688E1,-1.420000009E-2,2.199999988E-2,-1.950000040E-2
2.828499844E1,-1.279999968E-2,-2.659999952E-2,9.999999747E-5
2.831500000E1,-2.199999988E-2,-3.260000050E-2,-1.169999968E-2
2.834500312E1,-2.699999837E-3,-2.600000007E-3,-3.130000085E-2
2.837497344E1,6.899999920E-3,-2.049999870E-2,-2.139999904E-2
2.839499531E1,3.469999880E-2,-2.899999917E-2,-1.150000002E-2
2.842499688E1,5.150000006E-2,1.030000020E-2,-1.699999906E-3
2.845500000E1,3.689999878E-2,-4.999999655E-4,-1.169999968E-2
2.848500156E1,5.099999718E-3,1.860000007E-2,-1.999999862E-3
2.851500313E1,3.319999948E-2,1.609999873E-2,1.719999872E-2
2.854497500E1,1.429999992E-2,1.539999992E-2,-2.190000005E-2
2.856499688E1,-3.399999812E-2,-1.329999976E-2,7.499999832E-3
2.859499844E1,-2.899999963E-3,6.499999668E-3,7.499999832E-3
2.862500156E1,6.999999750E-3,-3.150000051E-2,-1.189999934E-2
2.865500312E1,-3.059999831E-2,-1.500000013E-3,-1.999999862E-3
2.868497344E1,-3.009999916E-2,2.669999935E-2,-3.150000051E-2
2.870499531E1,1.889999956E-2,2.520000003E-2,-2.180000022E-2
2.873499844E1,-1.879999973E-2,-3.199999919E-3,-3.150000051E-2
2.876500000E1,-5.509999767E-2,-1.249999925E-2,-1.999999862E-3
2.879500156E1,-5.889999866E-2,6.999999750E-3,-3.119999915E-2
2.882500469E1,-9.699999355E-3,-1.329999976E-2,-1.989999972E-2
2.885497500E1,-2.719999850E-2,-2.699999837E-3,-1.970000006E-2
2.887499688E1,-2.599999867E-2,-2.129999921E-2,0.000000000E0
2.890500000E1,5.089999735E-2,-1.599999960E-3,1.950000040E-2
2.893500156E1,2.899999917E-2,-1.799999969E-3,-9.899999946E-3
2.896500313E1,2.730000019E-2,-1.199999941E-3,-9.999999747E-5
2.899497500E1,-2.699999837E-3,1.789999940E-2,1.929999888E-2
2.901499688E1,1.609999873E-2,1.699999906E-2,2.909999900E-2
2.904499844E1,1.750000007E-2,2.510000020E-2,1.919999905E-2
2.907500000E1,1.389999967E-2,3.189999983E-2,-6.999999750E-4
2.910500156E1,8.109999448E-2,-1.699999906E-2,-2.039999887E-2
2.913500469E1,7.490000129E-2,-2.499999851E-2,3.839999810E-2
2.916497500E1,6.309999526E-2,-1.509999949E-2,1.869999990E-2
2.918499688E1,1.260000002E-2,-1.489999983E-2,8.899999782E-3
2.921499844E1,-2.709999867E-2,-1.439999975E-2,8.899999782E-3
2.924500156E1,-5.439999700E-2,-3.899999894E-3,8.999999613E-3
2.927500312E1,-6.069999933E-2,-3.899999894E-3,-1.040000003E-2
2.930497344E1,-8.639999479E-2,-7.999999798E-4,-2.600000007E-3
2.932499688E1,-7.149999589E-2,2.819999866E-2,7.199999876E-3
2.934502969E1,-3.039999865E-2,4.580000043E-2,-4.179999977E-2
2.937498906E1,2.759999968E-2,3.399999812E-2,-6.159999967E-2
2.940499063E1,8.100000210E-3,4.600000102E-3,-3.219999745E-2
2.943499375E1,2.529999986E-2,-2.290000021E-2,-2.699999837E-3
2.946499531E1,4.299999774E-2,-1.200000010E-2,-2.600000007E-3
2.949499688E1,4.949999973E-2,-1.099999994E-3,-2.219999954E-2
2.952500000E1,4.999999655E-4,-1.079999935E-2,-4.179999977E-2
2.955500156E1,3.720000014E-2,-1.899999939E-2,-2.600000007E-3
2.958500312E1,2.620000020E-2,2.049999870E-2,-1.239999942E-2
2.961497500E1,3.999999724E-3,9.599999525E-3,-2.229999937E-2
2.963499688E1,3.899999894E-3,-9.399999864E-3,-1.249999925E-2
2.966499844E1,-2.599999867E-2,-9.800000116E-3,-1.249999925E-2
2.969500000E1,-4.160000011E-2,2.789999917E-2,-4.199999943E-2
2.972500156E1,-2.009999938E-2,6.699999794E-3,-3.219999745E-2
2.975500469E1,-7.999999798E-4,2.429999970E-2,-2.259999886E-2
2.978497500E1,-3.059999831E-2,-1.409999933E-2,-5.199999735E-2
2.980499688E1,-2.969999984E-2,-2.379999869E-2,-2.699999837E-3
2.983500000E1,2.899999963E-3,-1.249999925E-2,2.679999918E-2
2.986500156E1,-6.000000052E-3,3.519999981E-2,-4.179999977E-2
2.989500313E1,3.399999812E-3,3.299999982E-2,-4.199999943E-2
2.992497500E1,1.439999975E-2,3.000000026E-3,6.899999920E-3
2.994499688E1,-1.469999924E-2,-1.630000025E-2,6.899999920E-3
2.997499844E1,-2.279999852E-2,-1.519999932E-2,-2.229999937E-2
3.000500000E1,6.999999750E-3,1.399999950E-2,-1.239999942E-2
3.003500313E1,-1.999999862E-3,-2.319999970E-2,-2.499999944E-3
3.006500469E1,-3.199999919E-3,-1.239999942E-2,-1.219999976E-2
3.009497500E1,8.009999990E-2,7.799999788E-3,-2.499999944E-3
3.011499688E1,2.969999984E-2,-1.899999916E-3,1.699999906E-2
3.014500000E1,7.530000061E-2,-2.199999988E-3,-1.239999942E-2
3.017500156E1,5.909999833E-2,-1.500000013E-3,-1.249999925E-2
3.020500312E1,4.849999771E-2,2.630000003E-2,-4.209999740E-2
3.023497500E1,9.399999864E-3,1.439999975E-2,-1.279999968E-2
3.025499688E1,-1.909999922E-2,-4.900000058E-3,1.649999991E-2
3.028499844E1,-3.700000048E-2,2.249999903E-2,-3.099999856E-3
3.031500000E1,1.200000010E-2,1.659999974E-2,-9.899999946E-3
3.034500312E1,-4.549999908E-2,-2.070000023E-2,1.960000023E-2
3.037500469E1,-1.559999958E-2,-4.649999738E-2,3.949999809E-2
3.040497500E1,4.100000020E-3,-1.599999890E-2,2.999999851E-4
3.042499688E1,-2.319999970E-2,-1.539999992E-2,-9.300000034E-3
3.045500000E1,-2.129999921E-2,-5.099999718E-3,4.999999655E-4
3.048500156E1,-3.909999877E-2,3.370000049E-2,2.999999933E-2
3.051500313E1,-8.100000210E-3,2.159999870E-2,1.999999955E-2
3.054497500E1,9.999999311E-4,1.119999960E-2,1.999999955E-2
3.056499688E1,2.099999972E-2,1.300000004E-3,1.009999961E-2
3.059499844E1,2.889999934E-2,1.399999950E-3,1.989999972E-2
3.062500000E1,7.620000094E-2,-2.730000019E-2,2.999999851E-4
3.065500312E1,7.979999483E-2,-4.419999942E-2,1.999999955E-2
3.068500469E1,4.559999704E-2,-1.339999959E-2,3.959999979E-2
3.071497500E1,1.389999967E-2,-1.219999976E-2,3.959999979E-2
3.073499844E1,1.329999976E-2,-1.169999968E-2,1.030000020E-2
3.076500000E1,-5.539999902E-2,-1.970000006E-2,3.979999945E-2
3.079500156E1,-4.600000102E-3,2.809999883E-2,3.979999945E-2
3.082500469E1,-5.020000041E-2,6.639999896E-2,-2.489999868E-2
3.085497500E1,-7.400000095E-2,5.150000006E-2,-1.539999992E-2
3.087499688E1,-8.949999511E-2,2.109999955E-2,4.100000020E-3
3.090499844E1,-4.729999974E-2,1.799999969E-3,-5.499999970E-3
3.093500000E1,-2.369999886E-2,-1.709999889E-2,-5.299999844E-3
3.096500313E1,3.559999913E-2,-3.439999744E-2,1.439999975E-2
3.099497344E1,4.030000046E-2,-1.379999984E-2,-3.460000083E-2
3.101499531E1,1.040000003E-2,-5.059999973E-2,-3.439999744E-2
3.104499844E1,2.819999866E-2,-1.819999889E-2,5.399999768E-2
3.107500000E1,7.259999961E-2,3.039999865E-2,4.799999762E-3
3.110500156E1,2.169999853E-2,2.819999866E-2,-1.499999966E-2
3.113500469E1,-9.800000116E-3,-1.929999888E-2,-5.099999718E-3
3.116497500E1,-1.019999944E-2,9.099999443E-3,-2.479999885E-2
3.118499688E1,-3.019999899E-2,2.829999849E-2,4.499999806E-3
3.121500000E1,-2.879999951E-2,7.499999832E-3,4.399999976E-3
3.124500156E1,-4.629999772E-2,2.719999850E-2,1.429999992E-2
3.127500312E1,-3.419999778E-2,-2.799999900E-3,1.429999992E-2
3.130497344E1,-2.469999902E-2,5.299999844E-3,-1.999999949E-4
3.132499531E1,-5.309999734E-2,2.559999935E-2,1.939999871E-2
3.135499844E1,-1.139999926E-2,-4.299999680E-3,1.950000040E-2
3.138500000E1,-1.989999972E-2,-2.369999886E-2,-2.939999849E-2
3.141500156E1,8.999999845E-4,-5.029999837E-2,9.999999776E-3
3.144500469E1,1.699999906E-3,-2.039999887E-2,-9.499999695E-3
3.147497500E1,1.129999943E-2,-2.999999851E-4,1.999999949E-4
3.149499688E1,-7.899999619E-3,-2.999999851E-4,1.009999961E-2
3.152499844E1,1.300000004E-3,1.829999872E-2,-1.929999888E-2
3.155500156E1,9.399999864E-3,4.470000044E-2,-2.939999849E-2
3.158500313E1,1.699999906E-3,1.409999933E-2,-9.899999946E-3
3.161497344E1,-1.539999992E-2,4.399999976E-3,0.000000000E0
3.163499688E1,3.899999894E-3,4.299999680E-3,-2.939999849E-2
3.166499844E1,1.349999942E-2,-1.459999941E-2,1.960000023E-2
3.169500000E1,3.000000026E-3,4.999999888E-3,0.000000000E0
3.172500156E1,2.999999851E-4,-1.389999967E-2,0.000000000E0
3.175500312E1,-9.999999747E-5,-1.279999968E-2,1.960000023E-2
3.178497500E1,-8.999999613E-3,-2.399999881E-3,9.899999946E-3
3.180499688E1,-3.739999980E-2,-1.239999942E-2,-1.999999862E-3
3.183499844E1,2.080000006E-2,-1.169999968E-2,1.759999990E-2
3.186500156E1,2.070000023E-2,1.599999890E-2,-2.169999853E-2
3.189500313E1,-4.490000010E-2,-1.370000001E-2,-1.189999934E-2
3.192497500E1,4.699999932E-3,-3.199999779E-2,3.720000014E-2
3.194499688E1,1.420000009E-2,-2.199999988E-3,2.740000002E-2
3.197499844E1,3.599999938E-3,1.569999941E-2,-2.099999925E-3
3.200500000E1,-1.439999975E-2,5.699999630E-3,-1.999999862E-3
3.203500312E1,2.379999869E-2,-1.269999985E-2,7.699999958E-3
3.206500469E1,4.999999702E-2,-2.199999988E-2,7.699999958E-3
3.209497500E1,2.819999866E-2,-2.009999938E-2,1.759999990E-2
3.211499688E1,3.629999980E-2,-4.999999655E-4,7.799999788E-3
3.214500000E1,-3.099999856E-3,1.860000007E-2,-1.179999951E-2
3.217500156E1,-1.219999976E-2,-1.150000002E-2,7.699999958E-3
3.220500313E1,7.799999788E-3,-1.099999994E-2,2.730000019E-2
3.223497500E1,-2.089999989E-2,1.789999940E-2,7.699999958E-3
3.225499688E1,8.100000210E-3,2.649999969E-2,-1.189999934E-2
3.228499844E1,1.750000007E-2,7.100000046E-3,-2.169999853E-2
3.231500000E1,-1.989999972E-2,-1.699999906E-3,2.730000019E-2
3.234500313E1,-2.719999850E-2,-1.099999994E-2,-1.169999968E-2
3.237500469E1,3.199999919E-3,-9.699999355E-3,7.999999449E-3
3.240497500E1,1.459999941E-2,9.999999747E-5,7.999999449E-3
3.242499688E1,1.519999932E-2,-1.049999986E-2,-3.119999915E-2
3.245500000E1,1.480000000E-2,-9.899999946E-3,-2.129999921E-2
3.248500156E1,2.129999921E-2,-3.769999743E-2,-1.699999906E-3
3.251500312E1,3.819999844E-2,-7.599999662E-3,-1.699999906E-3
3.254497500E1,4.509999976E-2,1.229999959E-2,7.999999449E-3
3.256499531E1,6.359999627E-2,-7.799999788E-3,-1.159999985E-2
3.259499844E1,3.119999915E-2,2.049999870E-2,-1.899999916E-3
3.262500000E1,-8.799999952E-3,4.739999771E-2,-1.200000010E-2
3.265500312E1,0.000000000E0,1.559999958E-2,-2.399999881E-3
3.268500469E1,1.030000020E-2,5.200000014E-3,-1.219999976E-2
3.271497500E1,-3.649999946E-2,-1.299999934E-2,-2.190000005E-2
3.273499688E1,-1.609999873E-2,-2.159999870E-2,-4.140000045E-2
3.276500000E1,-2.349999920E-2,-5.900000036E-2,7.799999788E-3
3.279500156E1,-2.349999920E-2,-5.460000038E-2,-5.059999973E-2
3.282500312E1,-4.230000079E-2,-2.459999919E-2,2.579999901E-2
3.285497500E1,-3.999999911E-2,1.549999975E-2,4.549999908E-2
3.287499688E1,-1.009999961E-2,6.159999967E-2,3.549999744E-2
3.290499844E1,-2.850000001E-2,4.849999771E-2,-1.370000001E-2
3.293500000E1,2.149999887E-2,3.559999913E-2,2.520000003E-2
3.296500156E1,3.070000000E-2,4.299999774E-2,1.519999932E-2
3.299500469E1,5.499999970E-2,1.300000004E-3,4.999999888E-3
3.302497500E1,3.419999778E-2,-1.740000024E-2,5.099999718E-3
3.304499688E1,2.379999869E-2,-2.639999986E-2,3.449999914E-2
3.307500000E1,2.249999903E-2,-1.489999983E-2,1.499999966E-2
3.310500156E1,1.209999993E-2,-7.099999487E-2,1.529999916E-2
3.313500313E1,-7.599999662E-3,-4.649999738E-2,3.529999778E-2
3.316497500E1,-3.629999980E-2,2.699999837E-3,5.899999756E-3
3.318499688E1,-5.519999936E-2,1.189999934E-2,-3.899999894E-3
3.321499844E1,-1.409999933E-2,2.029999904E-2,1.559999958E-2
3.324500156E1,-3.139999881E-2,2.919999883E-2,4.499999806E-2
3.327500313E1,-3.819999844E-2,5.409999937E-2,4.470000044E-2
3.330500469E1,1.799999969E-3,5.339999869E-2,4.199999850E-3
3.333497500E1,2.969999984E-2,1.169999968E-2,-5.699999630E-3
3.335499844E1,3.779999912E-2,-7.499999832E-3,3.999999724E-3
3.338500000E1,3.700000048E-2,-1.659999974E-2,2.359999903E-2
3.341500156E1,2.520000003E-2,-3.390000015E-2,-5.599999800E-3
3.344500312E1,6.209999695E-2,-4.089999944E-2,-5.399999674E-3
3.347497500E1,2.859999985E-2,-3.790000081E-2,-5.200000014E-3
3.349499688E1,8.599999361E-3,-8.200000040E-3,1.429999992E-2
3.352499844E1,-1.169999968E-2,-8.299999870E-3,2.410000004E-2
3.355500000E1,-9.399999864E-3,2.939999849E-2,4.399999976E-3
3.358500312E1,-4.690000042E-2,2.809999883E-2,1.409999933E-2
3.361500469E1,-3.350000083E-2,1.630000025E-2,-1.529999916E-2
3.364497500E1,-7.129999995E-2,2.589999884E-2,2.389999852E-2
3.366499844E1,-6.689999998E-2,2.510000020E-2,-5.399999674E-3
3.369500000E1,-6.099999882E-3,5.499999970E-3,-5.299999844E-3
3.372500156E1,-7.199999876E-3,1.509999949E-2,-1.519999932E-2
3.375500312E1,1.500000013E-3,-1.459999941E-2,-2.510000020E-2
3.378497500E1,1.399999950E-3,-5.189999938E-2,2.400000021E-2
3.380499688E1,5.169999972E-2,-1.549999975E-2,-9.999999747E-5
3.383499844E1,3.959999979E-2,-4.600000102E-3,-1.970000006E-2
3.386500156E1,2.850000001E-2,-1.449999958E-2,-6.870000064E-2
3.389500312E1,7.899999619E-3,-1.269999985E-2,-6.859999895E-2
3.392497344E1,-2.129999921E-2,6.199999712E-3,-4.899999872E-2
3.394499531E1,-1.989999972E-2,2.529999986E-2,-3.920000046E-2
3.397499844E1,-1.889999956E-2,3.309999779E-2,-2.960000001E-2
3.400500000E1,-8.200000040E-3,5.989999697E-2,-4.939999804E-2
3.403500312E1,1.049999986E-2,3.659999743E-2,-8.889999986E-2
3.406500469E1,1.099999994E-3,1.769999973E-2,-1.040000003E-2
3.409497500E1,-7.400000002E-3,-9.999999311E-4,-2.009999938E-2
3.411499688E1,1.169999968E-2,-1.009999961E-2,-6.909999996E-2
3.414499844E1,1.079999935E-2,-9.499999695E-3,-4.949999973E-2
3.417500156E1,1.970000006E-2,-1.730000041E-2,-3.949999809E-2
3.420500313E1,1.889999956E-2,-7.100000046E-3,-3.949999809E-2
3.423497344E1,-1.699999906E-3,-1.559999958E-2,-4.919999838E-2
3.425499688E1,7.699999958E-3,-5.399999674E-3,-1.979999989E-2
3.428499844E1,8.200000040E-3,-1.519999932E-2,-7.859999686E-2
3.431500000E1,-1.899999916E-3,-1.459999941E-2,-9.300000034E-3
3.434504531E1,-1.399999950E-3,4.799999762E-3,-5.829999968E-2
3.437500469E1,-2.929999866E-2,4.600000102E-3,-2.889999934E-2
3.440497500E1,-8.299999870E-3,1.349999942E-2,-9.300000034E-3
3.442499688E1,-6.459999830E-2,1.209999993E-2,-9.399999864E-3
3.445499844E1,1.420000009E-2,2.060000040E-2,-2.909999900E-2
3.448500156E1,-5.499999970E-3,2.919999883E-2,-2.919999883E-2
3.451500312E1,2.469999902E-2,2.689999901E-2,-9.699999355E-3
3.454497344E1,9.189999849E-2,6.099999882E-3,-3.929999843E-2
3.456499531E1,6.909999996E-2,-1.349999942E-2,-6.879999489E-2
3.459499844E1,3.429999948E-2,-1.200000010E-2,-3.940000013E-2
3.462500000E1,-3.269999847E-2,-2.119999938E-2,-1.970000006E-2
3.465500156E1,-4.820000008E-2,-2.779999934E-2,-2.909999900E-2
3.468500469E1,-7.599999662E-3,-2.599999867E-2,-4.859999940E-2
3.471497500E1,0.000000000E0,3.700000001E-3,-4.859999940E-2
3.473499688E1,-3.739999980E-2,-5.499999970E-3,-5.829999968E-2
3.476499844E1,2.169999853E-2,4.399999976E-3,2.009999938E-2
3.479500156E1,1.049999986E-2,1.149999946E-1,-2.950000018E-2
3.482500312E1,-2.879999951E-2,1.929999888E-2,-1.069999952E-2
3.485497344E1,-1.740000024E-2,-1.099999994E-2,5.779999867E-2
3.487499688E1,-5.419999734E-2,-2.009999938E-2,3.830000013E-2
3.490499844E1,-5.099999905E-2,1.809999906E-2,-7.999999798E-4
3.493500000E1,1.719999872E-2,8.399999700E-3,8.899999782E-3
3.496500156E1,4.580000043E-2,-2.009999938E-2,3.839999810E-2
3.499500469E1,8.060000092E-2,-4.629999772E-2,2.869999968E-2
3.502497500E1,1.072999984E-1,-6.309999526E-2,-2.009999938E-2
3.504499688E1,9.359999746E-2,-5.099999905E-2,4.859999940E-2
3.507499844E1,3.830000013E-2,-1.599999960E-3,4.849999771E-2
3.510500156E1,-7.999999798E-4,-1.300000004E-3,2.889999934E-2
3.513500313E1,-3.749999776E-2,2.689999901E-2,4.849999771E-2
3.516497500E1,-9.339999408E-2,5.379999802E-2,2.869999968E-2
3.518499688E1,-2.149999887E-2,5.049999803E-2,8.899999782E-3
3.521499844E1,-4.539999738E-2,3.590000048E-2,8.700000122E-3
3.524500000E1,-5.499999970E-3,5.429999903E-2,8.599999361E-3
3.527500156E1,-5.889999866E-2,-4.499999806E-3,1.850000024E-2
3.530500469E1,-2.709999867E-2,-2.960000001E-2,-3.099999856E-3
3.533497500E1,2.899999963E-3,-4.559999704E-2,-4.209999740E-2
3.535499688E1,2.799999900E-3,-3.409999982E-2,-2.229999937E-2
3.538500000E1,2.989999950E-2,-6.119999662E-2,-2.600000007E-3
3.541500156E1,1.840000041E-2,-1.869999990E-2,-1.219999976E-2
3.544500312E1,3.889999911E-2,3.999999911E-2,-4.160000011E-2
3.547497344E1,-2.909999900E-2,2.749999985E-2,-1.229999959E-2
3.549499531E1,-3.709999844E-2,7.599999662E-3,-2.209999971E-2
3.552499844E1,-2.869999968E-2,-1.899999916E-3,-2.499999944E-3
3.555500000E1,1.399999950E-3,-2.009999938E-2,1.709999889E-2
3.558500312E1,4.769999906E-2,-1.030000020E-2,-2.499999944E-3
3.561500469E1,1.509999949E-2,-1.860000007E-2,-2.199999988E-2
3.564497500E1,8.269999921E-2,-8.399999700E-3,2.689999901E-2
3.566499688E1,4.109999910E-2,4.969999939E-2,1.699999906E-2
3.569500000E1,1.850000024E-2,7.229999453E-2,-7.180000097E-2
3.572500156E1,-3.029999882E-2,-1.630000025E-2,-4.239999875E-2
3.575500312E1,-1.829999872E-2,-4.299999774E-2,-1.269999985E-2
3.578497344E1,-1.740000024E-2,-2.149999887E-2,-3.219999745E-2
3.580499688E1,-6.570000201E-2,-3.920000046E-2,-3.199999779E-2
3.583499844E1,-2.379999869E-2,-7.199999876E-3,-3.170000017E-2
3.586500000E1,1.429999992E-2,2.169999853E-2,-3.179999813E-2
3.589500312E1,5.099999905E-2,1.099999994E-3,-2.499999944E-3
3.592500469E1,9.499999695E-3,5.999999703E-4,-2.219999954E-2
3.595497500E1,2.579999901E-2,2.759999968E-2,-2.249999903E-2
3.597499688E1,5.899999756E-3,1.689999923E-2,1.659999974E-2
3.600500000E1,-2.699999837E-3,4.429999739E-2,-2.269999869E-2
3.603500156E1,-5.579999834E-2,-5.299999844E-3,-2.259999886E-2
3.606500313E1,-4.270000011E-2,-3.359999880E-2,-2.799999900E-3
3.609497500E1,-2.919999883E-2,-3.099999856E-3,-4.189999774E-2
3.611499688E1,1.889999956E-2,-1.219999976E-2,-2.219999954E-2
3.614499844E1,2.740000002E-2,-1.169999968E-2,-1.239999942E-2
3.617500000E1,3.359999880E-2,-8.999999845E-4,-2.219999954E-2
3.620500313E1,3.049999848E-2,-4.399999976E-3,3.889999911E-2
3.623500469E1,3.799999878E-2,-2.269999869E-2,7.819999754E-2
3.626497500E1,1.789999940E-2,-3.199999919E-3,5.859999731E-2
3.628499688E1,3.539999947E-2,6.899999920E-3,2.909999900E-2
3.631500000E1,3.189999983E-2,-3.099999856E-3,1.919999905E-2
3.634500156E1,1.899999916E-3,-2.699999837E-3,2.899999917E-2
3.637500312E1,1.119999960E-2,1.569999941E-2,-3.999999899E-4
3.640497500E1,1.189999934E-2,-1.439999975E-2,3.869999945E-2
3.642499688E1,-5.499999970E-2,1.449999958E-2,2.889999934E-2
3.645499844E1,-6.960000098E-2,1.370000001E-2,6.819999963E-2
3.648500156E1,-2.009999938E-2,4.109999910E-2,2.879999951E-2
3.651500312E1,-3.799999878E-2,3.999999899E-4,-5.999999703E-4
3.654500469E1,-6.549999863E-2,-1.809999906E-2,6.809999794E-2
3.657497656E1,-2.369999886E-2,-7.599999662E-3,6.819999963E-2
3.659499688E1,-1.339999959E-2,-1.679999940E-2,5.849999934E-2
3.662500000E1,1.519999932E-2,-3.449999914E-2,1.939999871E-2
3.665500156E1,5.299999844E-3,-1.359999925E-2,9.699999355E-3
3.668500469E1,1.480000000E-2,1.620000042E-2,2.929999866E-2
3.671497500E1,3.350000083E-2,9.999999747E-5,-1.840000041E-2
3.673499688E1,4.140000045E-2,9.999999747E-5,-8.599999361E-3
3.676499844E1,3.099999949E-2,2.819999866E-2,2.060000040E-2
3.679500000E1,2.960000001E-2,6.399999838E-3,-2.859999985E-2
3.682500312E1,1.040000003E-2,6.499999668E-3,1.049999986E-2
3.685497344E1,9.899999946E-3,4.349999875E-2,-1.899999939E-2
3.687499531E1,9.999999747E-5,1.349999942E-2,4.999999655E-4
3.690499844E1,6.659999490E-2,-1.509999949E-2,-3.859999776E-2
3.693500000E1,1.064999998E-1,-5.900000036E-2,6.999999750E-4
3.696500156E1,1.120999977E-1,-6.719999760E-2,2.039999887E-2
3.699500469E1,3.769999743E-2,-2.389999852E-2,-8.799999952E-3
3.702497500E1,-5.069999769E-2,1.509999949E-2,8.999999845E-4
3.704499688E1,-1.162000000E-1,3.449999914E-2,1.079999935E-2
3.707499844E1,-9.730000049E-2,5.020000041E-2,2.049999870E-2
3.710500156E1,-1.112999991E-1,6.549999863E-2,-1.889999956E-2
3.713500313E1,-7.310000062E-2,6.830000132E-2,-2.899999917E-2
3.716497344E1,7.100000046E-3,-1.090000011E-2,-1.919999905E-2
3.718499531E1,1.699999906E-2,-1.079999935E-2,-1.919999905E-2
3.721499844E1,2.379999869E-2,-4.899999872E-2,-9.999999311E-4
3.724500000E1,4.230000079E-2,-8.579999954E-2,2.850000001E-2
3.727500156E1,5.739999935E-2,-6.969999522E-2,3.869999945E-2
3.730500469E1,7.440000027E-2,-2.879999951E-2,3.879999742E-2
3.733497500E1,3.089999966E-2,1.099999994E-3,1.909999922E-2
3.735499688E1,1.079999935E-2,1.970000006E-2,2.879999951E-2
3.738500000E1,1.799999969E-3,2.759999968E-2,4.829999804E-2
3.741500156E1,2.399999881E-3,6.209999695E-2,3.810000047E-2
3.744500312E1,-3.720000014E-2,6.920000166E-2,-1.199999941E-3
3.747497344E1,-1.579999924E-2,-1.829999872E-2,4.779999703E-2
3.749499688E1,-2.449999936E-2,-8.299999870E-3,4.779999703E-2
3.752499844E1,-4.699999932E-3,1.599999960E-3,2.819999866E-2
3.755499844E1,5.399999674E-3,-1.640000008E-2,-1.069999952E-2
3.758500312E1,-3.439999744E-2,-3.439999744E-2,-7.999999798E-4
3.761500469E1,4.299999680E-3,-4.199999850E-3,8.899999782E-3
3.764497500E1,-3.329999745E-2,-1.379999984E-2,8.999999613E-3
3.766499688E1,-7.019999623E-2,-3.399999812E-3,4.829999804E-2
3.769500000E1,-9.599999525E-3,-1.599999960E-3,-2.999999851E-4
3.772500156E1,3.940000013E-2,-3.599999938E-3,-4.999999655E-4
3.775500312E1,-1.999999949E-4,-1.269999985E-2,1.909999922E-2
3.778497344E1,-1.500000013E-3,6.399999838E-3,-4.999999655E-4
3.780499531E1,-1.079999935E-2,4.499999806E-2,-2.019999921E-2
3.783499844E1,1.819999889E-2,-1.329999976E-2,-2.989999950E-2
3.786500000E1,3.610000014E-2,-4.129999876E-2,9.300000034E-3
3.789500156E1,5.219999701E-2,-1.049999986E-2,-3.999999899E-4
3.792500312E1,1.109999977E-2,-1.999999949E-4,-3.999999899E-4
3.795497500E1,0.000000000E0,1.889999956E-2,-4.999999655E-4
3.797499688E1,-1.860000007E-2,1.809999906E-2,9.200000204E-3
3.800500000E1,-4.589999840E-2,3.729999810E-2,9.200000204E-3
3.803500156E1,-4.239999875E-2,1.569999941E-2,-1.040000003E-2
3.806500313E1,-6.009999663E-2,2.529999986E-2,-2.999999933E-2
3.809497344E1,1.049999986E-2,-4.499999806E-3,-5.999999703E-4
3.811499688E1,-3.669999912E-2,-3.240000084E-2,-1.019999944E-2
3.814499844E1,-4.710000008E-2,-1.179999951E-2,-2.999999851E-4
3.817500000E1,-5.899999756E-3,-1.079999935E-2,-9.999999776E-3
3.820500313E1,2.329999954E-2,-1.850000024E-2,-2.979999967E-2
3.823500469E1,2.129999921E-2,-7.799999788E-3,-1.989999972E-2
3.826497500E1,2.169999853E-2,-7.899999619E-3,-2.969999984E-2
3.828499688E1,-1.709999889E-2,2.099999925E-3,-2.969999984E-2
3.831500000E1,-3.559999913E-2,1.169999968E-2,-1.989999972E-2
3.834500156E1,-1.529999916E-2,2.999999933E-2,-1.999999955E-2
3.837500312E1,3.119999915E-2,1.789999940E-2,-3.979999945E-2
3.840497344E1,-1.689999923E-2,-2.109999955E-2,-2.019999921E-2
3.842499688E1,-2.679999918E-2,-2.049999870E-2,3.859999776E-2
3.845499844E1,2.139999904E-2,4.580000043E-2,-6.999999750E-4
3.848500000E1,7.539999485E-2,2.520000003E-2,-4.999999702E-2
3.851500156E1,3.070000000E-2,-1.289999951E-2,-3.039999865E-2
3.854500469E1,-8.399999700E-3,-2.119999938E-2,-2.049999870E-2
3.857497500E1,-1.579999924E-2,-5.999999703E-4,-1.049999986E-2
3.859499688E1,3.599999938E-3,-3.999999899E-4,-4.969999939E-2
3.862500000E1,3.499999875E-3,9.999999747E-5,-6.999999750E-4
3.865500156E1,-8.020000160E-2,2.850000001E-2,-4.969999939E-2
3.868500312E1,-1.037999988E-1,6.899999920E-3,-6.999999750E-4
3.871497344E1,-5.859999731E-2,-2.119999938E-2,-4.900000058E-3
3.873499688E1,-2.789999917E-2,-1.399999950E-3,-2.449999936E-2
3.876499844E1,-5.609999970E-2,-1.300000004E-3,-4.799999762E-3
3.879500000E1,2.199999988E-2,-1.049999986E-2,-4.799999762E-3
3.882500312E1,2.859999985E-2,2.789999917E-2,4.799999762E-3
3.885500469E1,4.369999841E-2,5.359999835E-2,1.420000009E-2
3.888497500E1,1.319999993E-2,1.239999942E-2,1.399999950E-2
3.890499688E1,4.069999978E-2,-7.699999958E-3,3.350000083E-2
3.893500000E1,3.799999878E-2,-6.599999964E-3,-2.520000003E-2
3.896500156E1,8.280000091E-2,-2.539999969E-2,-1.539999992E-2
3.899500313E1,2.889999934E-2,-2.359999903E-2,4.100000020E-3
3.902497500E1,5.619999766E-2,-2.269999869E-2,2.369999886E-2
3.904499688E1,6.439999491E-2,-2.159999870E-2,4.199999850E-3
3.907499844E1,1.370000001E-2,7.999999449E-3,-4.479999840E-2
3.910500000E1,-9.919999540E-2,2.740000002E-2,-5.499999970E-3
3.913500313E1,-8.169999719E-2,7.100000046E-3,4.399999976E-3
3.916500469E1,-5.810000002E-2,1.609999873E-2,-3.469999880E-2
3.919497500E1,-8.899999410E-2,-1.289999951E-2,-3.700000001E-3
3.921499688E1,-5.700000003E-2,-1.239999942E-2,6.099999882E-3
3.924500000E1,-8.499999531E-3,1.699999906E-2,-5.269999802E-2
3.927500156E1,-2.609999850E-2,-2.129999921E-2,-3.499999875E-3
3.930500312E1,-1.599999890E-2,-1.030000020E-2,1.609999873E-2
3.933497500E1,4.399999976E-3,8.399999700E-3,6.199999712E-3
3.935499688E1,3.229999915E-2,1.750000007E-2,-2.319999970E-2
3.938499844E1,1.169999968E-2,1.799999923E-2,-2.319999970E-2
3.941500156E1,5.799999833E-2,-1.129999943E-2,-1.339999959E-2
3.944500312E1,7.339999825E-2,-1.099999994E-3,1.579999924E-2
3.947500469E1,4.099999741E-2,2.669999935E-2,-3.899999894E-3
3.950497500E1,1.699999906E-3,-4.600000102E-3,1.549999975E-2
3.952499844E1,4.939999804E-2,-3.899999894E-3,-3.999999724E-3
3.955500000E1,3.579999879E-2,-2.180000022E-2,1.549999975E-2
3.958500156E1,3.469999880E-2,-4.089999944E-2,5.699999630E-3
3.961500312E1,-3.599999938E-3,-9.200000204E-3,-3.799999831E-3
3.964497500E1,-3.199999779E-2,2.009999938E-2,-1.349999942E-2
3.966499688E1,-4.169999808E-2,2.859999985E-2,-4.309999943E-2
3.969500000E1,-1.989999972E-2,2.620000020E-2,1.500000013E-3
3.972500156E1,-2.879999951E-2,5.899999756E-3,1.129999943E-2
3.975500312E1,3.999999899E-4,2.410000004E-2,1.399999950E-3
3.978497344E1,-7.999999798E-4,1.499999966E-2,1.399999950E-3
3.980499531E1,4.779999703E-2,-1.409999933E-2,1.399999950E-3
3.983499844E1,-1.079999935E-2,-1.329999976E-2,-8.200000040E-3
3.986500000E1,-2.149999887E-2,-1.269999985E-2,1.129999943E-2
3.989500156E1,-2.099999925E-3,-1.119999960E-2,-1.789999940E-2
3.992500312E1,7.699999958E-3,-1.099999994E-2,-2.769999951E-2
3.995497500E1,5.439999700E-2,-1.009999961E-2,1.150000002E-2
3.997499688E1,3.319999948E-2,-1.999999949E-4,-8.100000210E-3
4.000499844E1,-4.799999762E-3,-1.090000011E-2,1.599999960E-3
4.003500156E1,1.549999975E-2,-1.929999888E-2,3.119999915E-2
4.006500313E1,1.519999932E-2,-1.899999939E-2,1.799999969E-3
4.009497344E1,-2.190000005E-2,7.999999798E-4,3.119999915E-2
4.011499531E1,7.100000046E-3,2.889999934E-2,1.150000002E-2
4.014499844E1,-4.199999850E-3,-1.199999941E-3,-3.749999776E-2
4.017500000E1,-3.399999812E-3,-1.939999871E-2,1.159999985E-2
4.020500156E1,1.640000008E-2,-7.400000002E-3,9.300000034E-3
4.023500469E1,2.479999885E-2,-6.999999750E-3,-3.959999979E-2
4.026497500E1,4.419999942E-2,2.699999837E-3,-5.929999799E-2
4.028499688E1,-1.549999975E-2,1.899999916E-3,-2.989999950E-2
4.031500000E1,3.700000001E-3,1.989999972E-2,-3.009999916E-2
4.034500156E1,-5.260000005E-2,2.999999851E-4,9.099999443E-3
4.037500312E1,-3.009999916E-2,9.300000034E-3,-1.040000003E-2
4.040497344E1,9.499999695E-3,1.759999990E-2,-3.009999916E-2
4.042499531E1,5.859999731E-2,-2.199999988E-3,-3.009999916E-2
4.045499844E1,7.899999619E-3,-1.109999977E-2,-1.049999986E-2
4.048500000E1,6.300000008E-3,1.789999940E-2,-6.999999750E-4
4.051500156E1,4.999999888E-3,-2.899999917E-2,-3.979999945E-2
4.054500469E1,1.549999975E-2,-2.889999934E-2,-2.019999921E-2
4.057497500E1,-4.109999910E-2,-8.299999870E-3,-2.989999950E-2
4.059499688E1,-4.869999737E-2,-7.799999788E-3,-2.979999967E-2
4.062499844E1,1.009999961E-2,2.699999837E-3,-4.930000007E-2
4.065500156E1,1.869999990E-2,2.499999944E-3,-4.939999804E-2
4.068500312E1,-2.899999963E-3,2.099999925E-3,-3.999999899E-4
4.071497344E1,2.369999886E-2,-7.899999619E-3,-1.779999956E-2
4.073499531E1,3.899999894E-3,1.109999977E-2,-8.100000210E-3
4.076499844E1,1.399999950E-2,9.899999946E-3,-8.200000040E-3
4.079500000E1,-4.199999850E-3,-9.999999311E-4,1.500000013E-3
4.082500156E1,-3.499999875E-3,7.499999832E-3,-3.769999743E-2
4.085500469E1,-2.109999955E-2,-1.209999993E-2,-2.789999917E-2
4.088497500E1,8.299999870E-3,-1.699999906E-3,-2.779999934E-2
4.090499688E1,4.669999704E-2,-2.019999921E-2,-2.779999934E-2
4.093500000E1,4.239999875E-2,-1.909999922E-2,-1.799999923E-2
4.096500156E1,1.289999951E-2,-2.749999985E-2,-1.789999940E-2
4.099500313E1,3.299999982E-3,-2.489999868E-2,-2.749999985E-2
4.102497344E1,-3.590000048E-2,4.299999680E-3,-2.749999985E-2
4.104499531E1,-1.420000009E-2,3.000000026E-3,-4.710000008E-2
4.107499844E1,-6.790000200E-2,-1.509999949E-2,-3.709999844E-2
4.110500000E1,-9.519999474E-2,4.380000010E-2,1.189999934E-2
4.113500313E1,-2.259999886E-2,4.989999905E-2,-1.759999990E-2
4.116500469E1,1.529999916E-2,4.820000008E-2,-4.719999805E-2
4.119497500E1,4.699999932E-3,3.399999812E-3,3.999999899E-4
4.121499688E1,4.499999806E-3,-1.549999975E-2,1.999999955E-2
4.124499844E1,8.989999443E-2,-6.229999661E-2,2.989999950E-2
4.127500156E1,3.529999778E-2,-5.629999936E-2,2.049999870E-2
4.130500313E1,6.140000001E-2,-2.529999986E-2,8.999999845E-4
4.133497344E1,9.329999983E-2,-1.420000009E-2,2.049999870E-2
4.135499688E1,-4.499999806E-3,-4.299999680E-3,1.069999952E-2
4.138499844E1,-2.309999987E-2,3.269999847E-2,3.989999741E-2
4.141500156E1,-4.879999906E-2,2.850000001E-2,2.009999938E-2
4.144500312E1,-5.649999902E-2,8.499999531E-3,3.969999775E-2
4.147500469E1,-3.339999914E-2,1.659999974E-2,1.999999955E-2
4.150497500E1,-2.209999971E-2,-2.799999900E-3,2.009999938E-2
4.152499688E1,9.399999864E-3,-2.399999881E-3,4.999999655E-4
4.155500000E1,-2.879999951E-2,-2.300000051E-3,2.019999921E-2
4.158500156E1,1.699999906E-3,-2.060000040E-2,1.049999986E-2
4.161500312E1,1.090000011E-2,-2.879999951E-2,1.059999969E-2
4.164497500E1,1.399999950E-3,1.999999862E-3,1.079999935E-2
4.166499688E1,2.979999967E-2,-7.400000002E-3,1.079999935E-2
4.169499844E1,1.860000007E-2,4.399999976E-3,7.999999798E-4
4.172500000E1,2.889999934E-2,4.299999680E-3,7.999999798E-4
4.175500312E1,5.539999902E-2,3.599999938E-3,-1.889999956E-2
4.178500469E1,1.669999957E-2,1.349999942E-2,1.049999986E-2
4.181497500E1,2.459999919E-2,2.169999853E-2,1.030000020E-2
4.183499688E1,3.299999982E-2,-7.199999876E-3,-2.879999951E-2
4.186500000E1,3.150000051E-2,2.159999870E-2,-2.889999934E-2
4.189500156E1,1.500000013E-3,1.399999950E-3,-9.399999864E-3
4.192500312E1,-2.529999986E-2,-7.999999449E-3,-9.300000034E-3
4.195497500E1,-5.099999718E-3,-7.199999876E-3,-1.899999939E-2
4.197499688E1,-3.299999982E-2,-4.419999942E-2,-4.820000008E-2
4.200499844E1,-1.699999906E-3,-1.329999976E-2,2.049999870E-2
4.203500156E1,2.769999951E-2,4.349999875E-2,2.029999904E-2
4.206500313E1,7.299999706E-3,3.179999813E-2,-2.879999951E-2
4.209500469E1,-1.150000002E-2,1.129999943E-2,-1.899999939E-2
4.212497500E1,-3.019999899E-2,3.039999865E-2,-9.200000204E-3
4.214499844E1,-2.879999951E-2,1.090000011E-2,1.030000020E-2
4.217500000E1,-1.649999991E-2,-7.699999958E-3,6.999999750E-4
4.220500156E1,4.900000058E-3,2.339999937E-2,-9.300000034E-3
4.223500313E1,8.810000122E-2,-5.599999800E-3,-2.899999917E-2
4.226497500E1,1.769999973E-2,-1.489999983E-2,1.009999961E-2
4.228499688E1,6.430000067E-2,-5.499999970E-3,4.919999838E-2
4.231499844E1,1.300000004E-3,-4.309999943E-2,9.999999776E-3
4.234500000E1,-1.587999910E-1,8.199999481E-2,-1.075999960E-1
4.237500312E1,-8.699999750E-2,9.599999525E-3,-5.849999934E-2
4.240500469E1,8.769999444E-2,-3.869999945E-2,-5.849999934E-2
4.243497500E1,6.179999933E-2,-2.489999868E-2,-1.909999922E-2
4.245499844E1,9.659999609E-2,4.399999976E-3,-2.899999917E-2
4.248500000E1,3.489999846E-2,-5.200000014E-3,-9.769999981E-2
4.251500156E1,1.329999976E-2,2.359999903E-2,9.999999747E-5
4.254500469E1,2.099999925E-3,2.259999886E-2,-9.699999355E-3
4.257497500E1,5.909999833E-2,5.759999901E-2,-4.930000007E-2
4.259499688E1,-2.769999951E-2,5.529999733E-2,-5.929999799E-2
4.262499844E1,-4.559999704E-2,5.799999926E-3,-1.999999955E-2
4.265500156E1,-7.869999856E-2,5.200000014E-3,2.899999917E-2
4.268500312E1,-3.819999844E-2,4.499999806E-3,-1.009999961E-2
4.271497344E1,-7.339999825E-2,5.109999701E-2,-9.849999845E-2
4.273499531E1,-2.319999970E-2,3.029999882E-2,-6.909999996E-2
4.276499688E1,-1.319999993E-2,-1.759999990E-2,-1.999999955E-2
4.279500000E1,-1.229999959E-2,2.899999963E-3,-7.880000025E-2
4.282500156E1,-6.709999591E-2,-2.589999884E-2,-5.900000036E-2
4.285500312E1,-3.219999745E-2,-7.779999822E-2,-7.789999992E-2
4.288497500E1,-1.399999950E-3,-6.999999750E-3,2.029999904E-2
4.290499531E1,8.399999700E-3,7.090000063E-2,5.999999703E-4
4.293499844E1,-2.019999921E-2,6.439999491E-2,-8.799999952E-2
4.296500156E1,-7.800000161E-2,2.439999953E-2,-4.879999906E-2
4.299500313E1,-6.499999668E-3,4.900000058E-3,1.999999949E-4
4.302497344E1,-5.799999926E-3,4.270000011E-2,-7.829999924E-2
4.304499531E1,3.799999831E-3,2.060000040E-2,-3.929999843E-2
4.307499844E1,2.190000005E-2,-1.789999940E-2,-3.920000046E-2
4.310500000E1,2.909999900E-2,-1.689999923E-2,-1.960000023E-2
4.313500156E1,1.679999940E-2,-1.539999992E-2,-1.960000023E-2
4.316500469E1,-3.189999983E-2,3.700000001E-3,-1.960000023E-2
4.319497500E1,8.299999870E-3,-4.799999762E-3,-3.909999877E-2
4.321499688E1,-1.059999969E-2,4.900000058E-3,-5.869999900E-2
4.324499844E1,-5.020000041E-2,-1.809999906E-2,1.779999956E-2
4.327500156E1,-2.929999866E-2,-2.599999867E-2,1.789999940E-2
4.330500313E1,-9.699999355E-3,-1.559999958E-2,-1.500000013E-3
4.333497344E1,1.199999941E-3,-1.429999992E-2,1.809999906E-2
4.335499688E1,1.199999941E-3,-4.199999850E-3,-3.079999983E-2
4.338499844E1,1.500000013E-3,-5.299999844E-3,3.769999743E-2
4.341500000E1,1.189999934E-2,-4.900000058E-3,-1.119999960E-2
4.344500156E1,1.059999969E-2,-5.099999718E-3,2.789999917E-2
4.347500469E1,8.399999700E-3,4.100000020E-3,1.799999923E-2
4.350497500E1,6.699999794E-3,1.359999925E-2,2.769999951E-2
4.352499688E1,2.419999987E-2,1.260000002E-2,2.759999968E-2
4.355499844E1,3.109999932E-2,2.899999917E-2,-1.189999934E-2
4.358500156E1,3.830000013E-2,-2.029999904E-2,-2.199999988E-3
4.361500312E1,1.699999906E-2,-2.809999883E-2,3.709999844E-2
4.364497344E1,2.609999850E-2,-3.709999844E-2,7.699999958E-3
4.366499531E1,-4.799999762E-3,-1.549999975E-2,-1.169999968E-2
4.369499844E1,2.279999852E-2,-1.409999933E-2,-1.159999985E-2
4.372500000E1,-5.499999970E-3,-1.349999942E-2,-1.199999941E-3
4.375500156E1,-3.309999779E-2,-3.099999949E-2,-1.079999935E-2
4.378500469E1,-2.199999988E-3,-1.049999986E-2,3.819999844E-2
4.381497500E1,1.699999906E-2,6.439999491E-2,1.829999872E-2
4.383499688E1,1.620000042E-2,4.279999807E-2,-1.119999960E-2
4.386500000E1,6.599999964E-3,1.249999925E-2,8.299999870E-3
4.389500156E1,-4.930000007E-2,3.299999982E-3,-1.300000004E-3
4.392500312E1,-2.659999952E-2,-1.549999975E-2,-1.099999994E-2
4.395497500E1,2.119999938E-2,-6.199999712E-3,2.809999883E-2
4.397499688E1,1.079999935E-2,1.279999968E-2,-1.300000004E-3
4.400499844E1,-5.999999703E-4,2.099999925E-3,-1.399999950E-3
4.403500156E1,7.599999662E-3,-1.649999991E-2,-2.099999972E-2
4.406500156E1,5.409999937E-2,-4.389999807E-2,3.790000081E-2
4.409500469E1,4.010000080E-2,5.200000014E-3,2.799999900E-2
4.412497500E1,2.039999887E-2,1.439999975E-2,-1.119999960E-2
4.414499688E1,-5.659999698E-2,1.379999984E-2,8.299999870E-3
4.417500000E1,-6.119999662E-2,1.209999993E-2,1.809999906E-2
4.420500156E1,-9.499999695E-3,1.150000002E-2,1.809999906E-2
4.423500313E1,-8.100000210E-3,1.109999977E-2,-8.299999870E-3
4.426497344E1,3.229999915E-2,-8.899999782E-3,1.399999950E-3
4.428499688E1,1.169999968E-2,-1.779999956E-2,-8.200000040E-3
4.431499844E1,2.829999849E-2,-2.539999969E-2,-3.759999946E-2
4.434504375E1,-1.079999935E-2,1.359999925E-2,1.500000013E-3
4.437500156E1,-2.689999901E-2,-1.559999958E-2,-8.100000210E-3
4.440500469E1,2.139999904E-2,-3.419999778E-2,1.150000002E-2
4.443497500E1,-1.819999889E-2,-1.289999951E-2,-7.899999619E-3
4.445499688E1,1.199999941E-3,1.579999924E-2,-1.769999973E-2
4.448499844E1,1.989999972E-2,1.589999907E-2,1.799999969E-3
4.451500156E1,9.699999355E-3,1.469999924E-2,-2.769999951E-2
4.454500312E1,-8.899999782E-3,-4.499999806E-3,1.699999906E-3
4.457497500E1,-4.399999976E-2,5.200000014E-3,-7.899999619E-3
4.459499688E1,-4.209999740E-2,1.429999992E-2,1.799999969E-3
4.462499844E1,6.999999750E-3,-4.600000102E-3,3.130000085E-2
4.465500000E1,6.179999933E-2,3.280000016E-2,-2.769999951E-2
4.468500312E1,1.219999976E-2,-4.470000044E-2,-3.739999980E-2
4.471500469E1,4.050000012E-2,-3.280000016E-2,3.119999915E-2
4.474497500E1,5.999999866E-2,4.690000042E-2,-4.010000080E-2
4.476499844E1,9.699999355E-3,1.459999941E-2,-6.979999691E-2
4.479500000E1,-1.099999994E-3,-4.199999943E-2,-6.969999522E-2
4.482500156E1,-1.129999943E-2,-2.169999853E-2,-2.060000040E-2
4.485500312E1,-2.889999934E-2,7.699999958E-3,-4.010000080E-2
4.488497500E1,-2.589999884E-2,-1.399999950E-3,-3.019999899E-2
4.490499688E1,-4.199999850E-3,8.499999531E-3,-3.009999916E-2
4.493499844E1,1.539999992E-2,3.509999812E-2,-5.979999900E-2
4.496500000E1,1.609999873E-2,1.420000009E-2,-4.030000046E-2
4.499500313E1,-1.319999993E-2,4.149999842E-2,-5.020000041E-2
4.502500469E1,-1.260000002E-2,1.090000011E-2,-5.029999837E-2
4.505497500E1,-1.989999972E-2,-3.519999981E-2,-4.999999702E-2
4.507499844E1,1.840000041E-2,-4.289999977E-2,-4.989999905E-2
4.510500000E1,1.759999990E-2,-1.189999934E-2,-5.959999934E-2
4.513500156E1,-3.909999877E-2,8.100000210E-3,-5.949999765E-2
4.516500313E1,2.049999870E-2,7.799999788E-3,-2.019999921E-2
4.519497500E1,-1.649999991E-2,4.409999773E-2,-5.969999731E-2
4.521499688E1,-2.499999851E-2,5.179999769E-2,-7.939999551E-2
4.524499844E1,2.899999963E-3,-2.249999903E-2,5.999999703E-4
4.527500000E1,3.029999882E-2,-3.130000085E-2,2.019999921E-2
4.530500313E1,2.889999934E-2,-2.159999870E-2,1.040000003E-2
4.533500469E1,2.759999968E-2,-2.399999881E-3,2.009999938E-2
4.536497500E1,4.459999874E-2,-1.099999994E-3,2.999999933E-2
4.538499844E1,3.240000084E-2,-1.059999969E-2,3.969999775E-2
4.541500000E1,4.629999772E-2,-1.909999922E-2,1.030000020E-2
4.544500156E1,4.429999739E-2,-1.840000041E-2,1.030000020E-2
4.547500312E1,-3.319999948E-2,-1.659999974E-2,2.999999933E-2
4.550497500E1,-7.009999454E-2,3.219999745E-2,3.009999916E-2
4.552499688E1,-1.066999957E-1,3.059999831E-2,2.019999921E-2
4.555499844E1,-7.880000025E-2,3.619999811E-2,-9.200000204E-3
4.558500000E1,-7.499999553E-2,-2.290000021E-2,4.959999770E-2
4.561500312E1,-3.599999938E-3,-3.900000080E-2,6.960000098E-2
4.564497344E1,7.310000062E-2,1.869999990E-2,1.059999969E-2
4.566499531E1,2.089999989E-2,1.750000007E-2,-6.790000200E-2
4.569499844E1,3.999999899E-4,-7.580000162E-2,-8.700000122E-3
4.572500000E1,3.139999881E-2,-8.669999987E-2,-6.699999794E-3
4.575500156E1,8.370000124E-2,-2.349999920E-2,-6.499999668E-3
4.578500312E1,1.175999939E-1,2.449999936E-2,-5.570000038E-2
4.581497500E1,8.919999748E-2,5.939999968E-2,-3.669999912E-2
4.583499688E1,2.909999900E-2,4.739999771E-2,-7.499999832E-3
4.586499844E1,-1.889999956E-2,3.559999913E-2,1.189999934E-2
4.589500156E1,-4.499999806E-2,5.989999697E-2,-2.759999968E-2
4.592500312E1,-4.120000079E-2,9.200000204E-3,-2.759999968E-2
4.595497344E1,-4.999999655E-4,-1.939999871E-2,-2.749999985E-2
4.597499531E1,-1.919999905E-2,-1.840000041E-2,-4.699999839E-2
4.600499844E1,1.150000002E-2,-5.579999834E-2,-3.700000048E-2
4.603500000E1,-7.299999706E-3,-5.199999735E-2,-1.709999889E-2
4.606500156E1,-1.679999940E-2,-1.139999926E-2,2.499999944E-3
4.609500469E1,-1.529999916E-2,2.699999884E-2,-7.199999876E-3
4.612497500E1,-2.400000021E-2,1.609999873E-2,-7.199999876E-3
4.614499688E1,-1.399999950E-2,-4.100000020E-3,-2.689999901E-2
4.617499844E1,1.399999950E-2,1.459999941E-2,-1.719999872E-2
4.620500156E1,1.379999984E-2,4.999999888E-3,1.209999993E-2
4.623500313E1,-2.279999852E-2,5.200000014E-3,-2.879999951E-2
4.626497344E1,-5.029999837E-2,-2.259999886E-2,-8.999999613E-3
4.628499531E1,8.899999782E-3,-4.079999775E-2,2.049999870E-2
4.631499844E1,2.719999850E-2,1.789999940E-2,3.999999911E-2
4.634500000E1,7.289999723E-2,1.709999889E-2,-8.999999613E-3
4.637500156E1,2.869999968E-2,2.449999936E-2,3.959999979E-2
4.640500469E1,2.699999884E-2,2.379999869E-2,9.999999776E-3
4.643497500E1,-3.000000026E-3,-5.899999756E-3,9.999999776E-3
4.645499688E1,5.329999700E-2,-1.519999932E-2,5.900000036E-2
4.648499844E1,-2.953999937E-1,4.201999903E-1,-4.969999939E-2
4.651500156E1,2.803999782E-1,8.757999539E-1,3.629999980E-2
4.654500312E1,-7.673000097E-1,-1.273599982E0,9.569999576E-2
4.657497344E1,-8.461999893E-1,-2.639999986E-2,1.260000002E-2
4.659499688E1,1.244699955E0,9.878999591E-1,1.709999889E-2
4.662499844E1,-1.222000003E0,-9.233999848E-1,-4.339999706E-2
4.665500000E1,8.238999844E-1,1.348399997E0,5.469999835E-2
4.668500156E1,-1.250800014E0,-1.027899981E0,-4.749999940E-2
4.671500469E1,-6.268999577E-1,3.421999812E-1,2.439999953E-2
4.674497500E1,1.264999956E-1,1.149799943E0,9.049999714E-2
4.676499688E1,-1.180400014E0,-4.621999860E-1,6.799999624E-3
4.679500000E1,8.769999743E-1,1.168699980E0,2.599999867E-2
4.682500156E1,-1.044000030E0,-4.487999976E-1,1.259000003E-1
4.685500312E1,5.388999581E-1,5.564999580E-1,-2.329999954E-2
4.688497344E1,-4.967999756E-1,-1.109999940E-1,-2.290000021E-2
4.690499531E1,-3.334999979E-1,-1.704999954E-1,1.649999991E-2
4.693499844E1,5.199999735E-2,-3.834999800E-1,7.599999662E-3
4.696500000E1,-8.060000092E-2,-1.401000023E-1,-1.079999935E-2
4.699500156E1,-2.159999870E-2,-2.310999930E-1,1.049999986E-2
4.702500469E1,-7.809999585E-2,-1.369999945E-1,-2.809999883E-2
4.705497500E1,-1.731999964E-1,7.079999894E-2,-8.100000210E-3
4.707499688E1,3.687999845E-1,1.709000021E-1,1.049999986E-2
4.710500000E1,1.088999957E-1,-6.922999620E-1,-8.299999870E-3
4.713500156E1,9.277999997E-1,7.932999730E-1,-3.269999847E-2
4.716500313E1,-1.020599961E0,-1.364499927E0,1.079999935E-2
4.719497500E1,-7.324999571E-1,-1.374499917E0,2.399999881E-3
4.721499688E1,-7.285999656E-1,1.859000027E-1,-1.669999957E-2
4.724499844E1,7.725999951E-1,-2.340999991E-1,4.789999872E-2
4.727500000E1,-1.096699953E0,-7.852999568E-1,-1.289999951E-2
4.730500156E1,1.001999974E-1,-1.116899967E0,3.179999813E-2
4.733500469E1,-1.079999924E0,-9.496999979E-1,1.799999969E-3
4.736497500E1,-2.872999907E-1,7.311999798E-1,4.600000102E-3
4.738499688E1,-5.805999637E-1,3.533000052E-1,-2.129999921E-2
4.741500000E1,1.104599953E0,4.341999888E-1,3.480000049E-2
4.744500156E1,-6.295999885E-1,-1.048000008E-1,-2.709999867E-2
4.747500312E1,7.199999876E-3,3.039000034E-1,-9.800000116E-3
4.750497500E1,3.312999904E-1,-2.489999980E-1,1.909999922E-2
4.752499688E1,-1.806000024E-1,-1.735000014E-1,-9.099999443E-3
4.755502969E1,-9.929999709E-2,1.620000042E-2,-4.779999703E-2
4.758500156E1,-1.679999940E-2,-1.555999964E-1,-5.719999969E-2
4.761500156E1,-7.099999487E-2,-1.124999970E-1,-3.649999946E-2
4.764500469E1,-7.759999484E-2,-8.779999614E-2,3.000000026E-3
4.767497656E1,-8.919999748E-2,-5.249999836E-2,-1.579999924E-2
4.769499688E1,-3.839999810E-2,-2.199999988E-2,-1.569999941E-2
4.772500000E1,-2.679999918E-2,-1.159999985E-2,-1.559999958E-2
4.775500156E1,-2.400000021E-2,-1.119999960E-2,-3.519999981E-2
4.778500312E1,-1.319999993E-2,-1.019999944E-2,-2.529999986E-2
4.781497344E1,-3.000000026E-3,-6.430000067E-2,-2.489999868E-2
4.783499688E1,-1.229999959E-2,-7.069999725E-2,-2.459999919E-2
4.786499844E1,-7.009999454E-2,-9.649999440E-2,-1.449999958E-2
4.789500000E1,4.019999877E-2,-1.067999974E-1,-3.339999914E-2
4.792500312E1,1.372999996E-1,-1.481000036E-1,-3.599999938E-3
4.795500469E1,-2.802000046E-1,-5.150000006E-2,-8.109999448E-2
4.798497500E1,-2.799999900E-3,-2.730000019E-2,4.089999944E-2
4.800499688E1,4.449999705E-2,-1.033999994E-1,-1.769999973E-2
4.803500000E1,-2.239999920E-2,-1.899999939E-2,1.209999993E-2
4.806500156E1,5.339999869E-2,-3.749999776E-2,2.190000005E-2
4.809500313E1,-8.879999816E-2,3.499999875E-3,2.600000007E-3
4.812497500E1,5.999999703E-4,1.090000011E-2,3.189999983E-2
4.814499688E1,-1.999999949E-4,-2.730000019E-2,1.229999959E-2
4.817499844E1,-2.029999904E-2,-3.449999914E-2,4.189999774E-2
4.820500000E1,8.999999613E-3,-4.339999706E-2,4.199999943E-2
4.823500313E1,5.539999902E-2,-4.919999838E-2,1.279999968E-2
4.826500469E1,3.409999982E-2,-5.700000003E-2,3.249999881E-2
4.829497500E1,8.699999750E-2,-4.329999909E-2,3.299999982E-3
4.831499688E1,7.369999588E-2,-5.089999735E-2,4.259999841E-2
4.834500000E1,7.000000030E-2,-4.889999703E-2,3.289999813E-2
4.837500156E1,6.439999491E-2,-4.449999705E-2,1.349999942E-2
4.840500312E1,3.469999880E-2,-2.379999869E-2,5.279999971E-2
4.843497500E1,5.169999972E-2,1.509999949E-2,1.349999942E-2
4.845499688E1,3.070000000E-2,-1.359999925E-2,1.349999942E-2
4.848499844E1,-8.200000040E-3,-2.089999989E-2,3.729999810E-2
4.851500156E1,4.999999655E-4,2.749999985E-2,2.740000002E-2
4.854501563E1,-3.729999810E-2,-3.099999856E-3,-3.139999881E-2
4.857497188E1,-2.329999954E-2,-2.180000022E-2,-2.139999904E-2
4.859499531E1,-1.289999951E-2,-4.889999703E-2,-1.599999960E-3
4.862499844E1,3.659999743E-2,-3.739999980E-2,8.200000040E-3
4.865500000E1,-3.099999856E-3,-3.509999812E-2,1.819999889E-2
4.868500156E1,-3.199999779E-2,-4.999999888E-3,-1.199999941E-3
4.871500312E1,6.499999668E-3,3.499999875E-3,-3.079999983E-2
4.874497500E1,3.429999948E-2,-3.449999914E-2,-2.089999989E-2
4.876499688E1,-2.329999954E-2,-2.319999970E-2,1.840000041E-2
4.879499844E1,-1.239999942E-2,1.579999924E-2,8.599999361E-3
4.882500156E1,1.669999957E-2,5.799999926E-3,-4.039999843E-2
4.885500312E1,-2.600000007E-3,-3.119999915E-2,8.700000122E-3
4.888497344E1,-1.189999934E-2,-2.999999933E-2,1.860000007E-2
4.890499531E1,3.749999776E-2,-3.940000013E-2,1.869999990E-2
4.893499844E1,2.649999969E-2,1.879999973E-2,1.860000007E-2
4.896500000E1,4.459999874E-2,2.749999985E-2,3.099999856E-3
4.899500313E1,4.849999771E-2,5.799999926E-3,4.209999740E-2
4.902500469E1,1.779999956E-2,2.419999987E-2,1.249999925E-2
4.905497500E1,2.439999953E-2,-1.489999983E-2,2.219999954E-2
4.907499688E1,5.139999837E-2,-3.309999779E-2,1.249999925E-2
4.910499844E1,1.399999950E-3,-1.260000002E-2,2.699999837E-3
4.913500156E1,-3.519999981E-2,-1.139999926E-2,-1.659999974E-2
4.916500313E1,-1.579999924E-2,-1.989999972E-2,-6.699999794E-3
4.919497344E1,-2.419999987E-2,-7.999999449E-3,-6.499999668E-3
4.921499531E1,-3.249999881E-2,-7.699999958E-3,1.310000010E-2
4.924499844E1,-2.129999921E-2,-3.629999980E-2,-1.620000042E-2
4.927500000E1,-1.789999940E-2,-1.509999949E-2,1.339999959E-2
4.930500156E1,2.399999881E-3,2.339999937E-2,3.499999875E-3
4.933500469E1,-5.399999674E-3,3.979999945E-2,1.310000010E-2
4.936497500E1,2.369999886E-2,3.879999742E-2,2.279999852E-2
4.938499688E1,3.399999812E-3,5.659999698E-2,3.099999856E-3
4.941499844E1,-4.409999773E-2,5.599999800E-3,1.269999985E-2
4.944500156E1,6.300000008E-3,-3.299999982E-2,4.219999909E-2
4.947500312E1,3.370000049E-2,4.779999703E-2,-8.499999531E-3
4.950497344E1,7.229999453E-2,-2.300000051E-3,-4.789999872E-2
4.952499531E1,6.149999797E-2,-3.099999949E-2,-5.759999901E-2
4.955499844E1,5.570000038E-2,-2.749999985E-2,-4.769999906E-2
4.958500000E1,5.419999734E-2,-1.719999872E-2,-4.769999906E-2
4.961500156E1,1.329999976E-2,-2.510000020E-2,-4.749999940E-2
4.964500469E1,3.799999831E-3,5.499999970E-3,-3.759999946E-2
4.967497500E1,-7.799999788E-3,-3.999999724E-3,-3.759999946E-2
4.969499688E1,-4.490000010E-2,5.599999800E-3,-2.779999934E-2
4.972499844E1,-3.519999981E-2,2.499999851E-2,-3.759999946E-2
4.975500156E1,5.200000014E-3,3.280000016E-2,-8.299999870E-3
4.978500312E1,2.339999937E-2,4.219999909E-2,-6.729999930E-2
4.981497500E1,3.099999856E-3,-6.599999964E-3,-4.759999737E-2
4.983499688E1,2.169999853E-2,-1.549999975E-2,-3.779999912E-2
4.986499844E1,1.189999934E-2,-3.390000015E-2,-1.809999906E-2
4.989500000E1,3.049999848E-2,-3.799999831E-3,-2.779999934E-2
4.992500156E1,5.999999703E-4,4.900000058E-3,-7.699999958E-2
4.995500469E1,-9.099999443E-3,-1.349999942E-2,-3.769999743E-2
4.998497500E1,-4.999999655E-4,4.799999762E-3,-1.999999955E-2
5.000499688E1,-1.069999952E-2,4.199999850E-3,-4.949999973E-2
5.003500000E1,8.100000210E-3,-5.699999630E-3,-4.999999655E-4
5.006500156E1,4.609999806E-2,-5.799999926E-3,-2.009999938E-2
5.009500313E1,-1.310000010E-2,1.319999993E-2,-4.959999770E-2
5.012497500E1,-2.190000005E-2,-5.899999756E-3,-4.999999655E-4
5.014499688E1,-1.109999977E-2,-2.520000003E-2,-2.989999950E-2
5.017499844E1,-2.929999866E-2,-5.399999674E-3,-2.979999967E-2
5.020500000E1,2.019999921E-2,-4.999999888E-3,-1.019999944E-2
5.023500156E1,2.819999866E-2,-1.349999942E-2,-1.009999961E-2
5.026500469E1,-1.079999935E-2,2.589999884E-2,-4.930000007E-2
5.029497500E1,2.630000003E-2,5.399999674E-3,-1.999999955E-2
5.031499688E1,1.579999924E-2,5.299999844E-3,-2.979999967E-2
5.034500000E1,-1.289999951E-2,-3.199999919E-3,-4.930000007E-2
5.037500156E1,-3.089999966E-2,-2.119999938E-2,9.599999525E-3
5.040500312E1,4.659999907E-2,8.200000040E-3,-2.960000001E-2
5.043497344E1,2.510000020E-2,2.520000003E-2,-3.959999979E-2
5.045499531E1,1.469999924E-2,-3.799999831E-3,-2.979999967E-2
5.048499844E1,-6.300000008E-3,-6.799999624E-3,-3.999999899E-4
5.051500000E1,2.699999837E-3,2.600000007E-3,9.200000204E-3
5.054501875E1,-1.609999873E-2,2.699999837E-3,9.200000204E-3
5.057500469E1,-2.579999901E-2,-7.400000002E-3,3.859999776E-2
5.060497500E1,2.209999971E-2,1.159999985E-2,9.200000204E-3
5.062499688E1,1.219999976E-2,-7.999999449E-3,2.879999951E-2
5.065500000E1,-2.549999952E-2,1.399999950E-3,3.859999776E-2
5.068500156E1,1.389999967E-2,1.009999961E-2,9.099999443E-3
5.071500312E1,-2.559999935E-2,2.759999968E-2,-7.999999798E-4
5.074497344E1,3.299999982E-2,-1.099999994E-2,3.830000013E-2
5.076499688E1,2.129999921E-2,-7.999999798E-4,1.869999990E-2
5.079499844E1,2.019999921E-2,-1.899999939E-2,5.799999833E-2
5.082500000E1,-2.019999921E-2,-9.300000034E-3,8.999999613E-3
5.085500312E1,-1.399999950E-3,-9.200000204E-3,-3.019999899E-2
5.088500469E1,-1.109999977E-2,-9.300000034E-3,3.839999810E-2
5.091497500E1,-1.919999905E-2,9.999999776E-3,1.879999973E-2
5.093499688E1,9.699999355E-3,1.999999949E-4,8.999999613E-3
5.096500000E1,9.999999747E-5,-6.799999624E-3,-4.999999655E-4
5.099500156E1,1.069999952E-2,2.229999937E-2,-2.989999950E-2
5.102500313E1,-1.860000007E-2,2.190000005E-2,-3.979999945E-2
5.105497500E1,-5.370000005E-2,1.300000004E-3,1.899999939E-2
5.107499688E1,-2.319999970E-2,1.049999986E-2,1.889999956E-2
5.110499844E1,1.609999873E-2,-9.399999864E-3,-3.979999945E-2
5.113500000E1,-2.300000051E-3,-1.829999872E-2,-1.030000020E-2
5.116500313E1,3.649999946E-2,-1.699999906E-2,-3.999999899E-4
5.119500469E1,1.001999974E-1,-5.699999630E-3,-3.999999899E-4
5.122497500E1,3.999999911E-2,4.299999680E-3,-1.999999955E-2
5.124499688E1,-9.300000034E-3,-2.549999952E-2,-1.999999955E-2
5.127500000E1,-2.639999986E-2,-3.179999813E-2,2.919999883E-2
5.130500156E1,-6.999999750E-3,4.509999976E-2,-1.999999949E-4
5.133500312E1,-1.569999941E-2,4.959999770E-2,-2.999999933E-2
5.136497500E1,-3.379999846E-2,2.789999917E-2,-3.019999899E-2
5.138499688E1,-2.419999987E-2,1.740000024E-2,-4.010000080E-2
5.141499844E1,2.219999954E-2,7.400000002E-3,8.799999952E-3
5.144500156E1,3.869999945E-2,-1.169999968E-2,2.840000018E-2
5.147500312E1,2.520000003E-2,-1.209999993E-2,-2.070000023E-2
5.150497344E1,3.309999779E-2,-1.699999906E-3,-9.999999311E-4
5.152499531E1,-1.779999956E-2,-3.019999899E-2,8.700000122E-3
5.155499844E1,-4.239999875E-2,-9.300000034E-3,1.869999990E-2
5.158500000E1,-2.089999989E-2,9.699999355E-3,2.850000001E-2
5.161500156E1,1.789999940E-2,7.899999619E-3,-8.999999845E-4
5.164500312E1,-1.199999941E-3,7.499999832E-3,1.850000024E-2
5.167497500E1,-1.249999925E-2,-2.499999944E-3,-9.999999311E-4
5.169499688E1,6.599999964E-3,-2.399999881E-3,1.850000024E-2
5.172499844E1,-1.139999926E-2,7.899999619E-3,2.840000018E-2
5.175500156E1,6.099999882E-3,-1.799999969E-3,8.700000122E-3
5.178500312E1,-5.200000014E-3,-1.119999960E-2,1.850000024E-2
5.181497344E1,2.279999852E-2,8.700000122E-3,1.850000024E-2
5.183499531E1,4.989999905E-2,-1.040000003E-2,8.700000122E-3
5.186499844E1,1.960000023E-2,-9.099999443E-3,-8.999999845E-4
5.189500000E1,1.869999990E-2,7.999999798E-4,4.800000042E-2
5.192500156E1,-6.809999794E-2,1.199999941E-3,-2.049999870E-2
5.195500469E1,-6.169999763E-2,-1.799999923E-2,8.999999613E-3
5.198497500E1,-5.900000036E-2,2.699999837E-3,6.699999794E-3
5.200499688E1,-3.639999777E-2,3.199999779E-2,-3.240000084E-2
5.203500000E1,-2.300000004E-2,1.139999926E-2,6.699999794E-3
5.206500156E1,-3.229999915E-2,-7.799999788E-3,6.699999794E-3
5.209500313E1,-2.989999950E-2,1.099999994E-3,-2.259999886E-2
5.212497344E1,2.929999866E-2,5.999999703E-4,1.649999991E-2
5.214499688E1,5.829999968E-2,-8.700000122E-3,-3.000000026E-3
5.217499844E1,-1.989999972E-2,-8.200000040E-3,-2.249999903E-2
5.220500000E1,-1.950000040E-2,-1.679999940E-2,2.649999969E-2
5.223500313E1,3.579999879E-2,3.089999966E-2,6.699999794E-3
5.226500469E1,5.299999937E-2,4.999999655E-4,-4.239999875E-2
5.229497500E1,4.849999771E-2,-8.200000040E-3,-2.279999852E-2
5.231499688E1,1.819999889E-2,1.399999950E-3,6.499999668E-3
5.234500000E1,4.559999704E-2,1.159999985E-2,2.609999850E-2
5.237500156E1,4.999999888E-3,2.039999887E-2,-1.310000010E-2
5.240500312E1,1.630000025E-2,2.879999951E-2,-3.280000016E-2
5.243497344E1,-1.599999960E-3,-2.999999851E-4,-3.299999982E-3
5.245499531E1,1.709999889E-2,-3.999999899E-4,1.620000042E-2
5.248499844E1,-2.139999904E-2,-9.200000204E-3,-1.989999972E-2
5.251500000E1,-1.199999941E-3,9.399999864E-3,-1.019999944E-2
5.254502500E1,-4.969999939E-2,-2.869999968E-2,-3.949999809E-2
5.257500469E1,-2.749999985E-2,-1.750000007E-2,-9.899999946E-3
5.260497500E1,-4.900000058E-3,-7.299999706E-3,-2.939999849E-2
5.262499688E1,-3.329999745E-2,1.249999925E-2,-1.960000023E-2
5.265499844E1,1.389999967E-2,2.049999870E-2,-1.979999989E-2
5.268500156E1,-5.799999926E-3,1.950000040E-2,-1.999999949E-4
5.271500312E1,-6.899999920E-3,3.749999776E-2,-3.999999899E-4
5.274497500E1,3.249999881E-2,-1.219999976E-2,-1.019999944E-2
5.276499688E1,2.339999937E-2,-1.200000010E-2,-3.999999899E-4
5.279499844E1,2.999999933E-2,-2.029999904E-2,9.399999864E-3
5.282500000E1,5.719999969E-2,-9.999999776E-3,-3.999999899E-4
5.285500156E1,4.380000010E-2,-1.850000024E-2,-2.999999851E-4
5.288500469E1,1.249999925E-2,1.119999960E-2,-2.999999851E-4
5.291497500E1,1.059999969E-2,2.899999917E-2,-4.999999655E-4
5.293499688E1,-8.499999531E-3,-1.999999949E-4,-2.009999938E-2
5.296500000E1,-2.539999969E-2,2.979999967E-2,1.799999969E-3
5.299500156E1,-3.209999949E-2,1.809999906E-2,-3.739999980E-2
5.302500313E1,-6.049999967E-2,-1.150000002E-2,-2.759999968E-2
5.305497344E1,-2.730000019E-2,8.499999531E-3,1.159999985E-2
5.307499688E1,-1.669999957E-2,2.679999918E-2,1.699999906E-3
5.310499844E1,-6.599999964E-3,-1.389999967E-2,-2.769999951E-2
5.313500000E1,-2.469999902E-2,-4.019999877E-2,-1.759999990E-2
5.316500156E1,3.339999914E-2,-1.929999888E-2,1.999999862E-3
5.319500469E1,3.999999724E-3,0.000000000E0,-1.750000007E-2
5.322497500E1,2.469999902E-2,9.699999355E-3,-1.750000007E-2
5.324499688E1,-2.569999918E-2,9.800000116E-3,1.179999951E-2
5.327500000E1,3.019999899E-2,2.679999918E-2,1.150000002E-2
5.330500156E1,3.779999912E-2,7.220000029E-2,-1.819999889E-2
5.333500312E1,-3.089999966E-2,1.919999905E-2,1.079999935E-2
5.336497500E1,-4.829999804E-2,-1.970000006E-2,-3.799999878E-2
5.338499688E1,-4.439999908E-2,-8.519999683E-2,-4.749999940E-2
5.341499844E1,-1.289999951E-2,-1.046999991E-1,2.300000051E-3
5.344500000E1,6.209999695E-2,-5.240000039E-2,-5.619999766E-2
5.347500312E1,1.218999997E-1,-2.600000007E-3,-3.869999945E-2
5.350500469E1,1.071999967E-1,3.570000082E-2,2.999999851E-4
5.353497656E1,1.359999925E-2,1.149999946E-1,9.300000034E-3
5.355499844E1,2.249999903E-2,7.249999791E-2,-2.029999904E-2
5.358500000E1,-4.580000043E-2,3.089999966E-2,-8.999999845E-4
5.361500156E1,-9.809999913E-2,-7.799999788E-3,-3.019999899E-2
5.364500312E1,-4.690000042E-2,-4.539999738E-2,-5.999999703E-4
5.367497500E1,3.130000085E-2,-3.269999847E-2,-3.959999979E-2
5.369499688E1,7.679999620E-2,-3.109999932E-2,-4.930000007E-2
5.372499844E1,-2.239999920E-2,-2.869999968E-2,-2.950000018E-2
5.375500000E1,-5.749999732E-2,-2.529999986E-2,-9.599999525E-3
5.378500312E1,-4.769999906E-2,-2.369999886E-2,2.999999851E-4
5.381500469E1,-1.759999990E-2,2.499999851E-2,2.999999851E-4
5.384497500E1,1.979999989E-2,1.429999992E-2,-5.859999731E-2
5.386499844E1,2.909999900E-2,5.169999972E-2,-2.929999866E-2
5.389500000E1,1.759999990E-2,1.699999906E-3,7.829999924E-2
5.392500156E1,6.999999750E-3,7.660000026E-2,9.399999864E-3
5.395500313E1,-2.109999955E-2,3.309999779E-2,-4.969999939E-2
5.398497500E1,3.599999845E-2,-1.840000041E-2,1.209999993E-2
5.400499688E1,5.399999674E-3,-3.739999980E-2,4.160000011E-2
5.403500000E1,1.379999984E-2,-2.559999935E-2,6.129999831E-2
5.406500156E1,3.329999745E-2,-2.499999851E-2,-7.199999876E-3
5.409500313E1,-1.389999967E-2,-1.409999933E-2,3.209999949E-2
5.412500469E1,-2.439999953E-2,-3.700000001E-3,2.699999837E-3
5.415497500E1,-4.109999910E-2,-3.399999812E-3,1.260000002E-2
5.417499688E1,-3.929999843E-2,-1.269999985E-2,3.229999915E-2
5.420500000E1,-1.750000007E-2,-1.269999985E-2,3.229999915E-2
5.423500156E1,-3.570000082E-2,-2.399999881E-3,3.240000084E-2
5.426500313E1,-3.280000016E-2,5.299999844E-3,2.899999963E-3
5.429497500E1,-4.800000042E-2,3.219999745E-2,4.199999943E-2
5.431499688E1,7.999999798E-4,-6.799999624E-3,4.199999943E-2
5.434504219E1,6.999999750E-4,1.209999993E-2,2.229999937E-2
5.437500000E1,1.730000041E-2,1.049999986E-2,2.209999971E-2
5.440500156E1,1.609999873E-2,9.999999311E-4,4.169999808E-2
5.443497344E1,3.350000083E-2,-2.639999986E-2,-7.100000046E-3
5.445499531E1,3.199999779E-2,-1.589999907E-2,2.699999837E-3
5.448499844E1,5.130000040E-2,-3.139999881E-2,8.999999613E-3
5.451500000E1,1.829999872E-2,-1.069999952E-2,-6.999999750E-4
5.454500156E1,-1.139999926E-2,1.899999939E-2,-5.999999703E-4
5.457500312E1,-2.989999950E-2,2.689999901E-2,-1.059999969E-2
5.460497500E1,-1.709999889E-2,-1.249999925E-2,-4.979999736E-2
5.462499688E1,-5.509999767E-2,-1.370000001E-2,-2.039999887E-2
5.465499844E1,-6.949999928E-2,-1.200000010E-2,-1.040000003E-2
5.468500156E1,-2.979999967E-2,2.769999951E-2,-1.030000020E-2
5.471500312E1,-7.999999449E-3,-1.179999951E-2,-5.929999799E-2
5.474497344E1,-2.769999951E-2,-2.989999950E-2,-1.019999944E-2
5.476499688E1,1.500000013E-3,9.599999525E-3,2.899999917E-2
5.479499844E1,2.779999934E-2,3.680000082E-2,-5.999999703E-4
5.482500000E1,4.800000042E-2,-1.229999959E-2,-5.939999968E-2
5.485500156E1,1.659999974E-2,-1.699999906E-3,-1.040000003E-2
5.488500313E1,5.680000037E-2,-1.599999960E-3,-2.019999921E-2
5.491497500E1,-2.499999944E-3,-1.399999950E-3,-3.979999945E-2
5.493499688E1,-2.109999955E-2,8.100000210E-3,-2.999999933E-2
5.496499844E1,-9.999999776E-3,1.589999907E-2,9.999999311E-4
5.499500156E1,5.999999703E-4,-3.700000001E-3,2.070000023E-2
5.502500313E1,-2.789999917E-2,-3.099999856E-3,2.070000023E-2
5.505497344E1,4.999999655E-4,1.529999916E-2,1.079999935E-2
5.507499688E1,-8.899999782E-3,-3.999999724E-3,1.079999935E-2
5.510499844E1,-8.399999700E-3,5.099999718E-3,1.079999935E-2
5.513500000E1,1.099999994E-3,-4.299999680E-3,1.079999935E-2
5.516500156E1,-7.400000002E-3,-1.349999942E-2,2.070000023E-2
5.519500469E1,1.310000010E-2,-1.339999959E-2,2.070000023E-2
5.522497500E1,4.189999774E-2,2.549999952E-2,1.099999994E-3
5.524499688E1,3.070000000E-2,3.449999914E-2,9.999999311E-4
5.527499844E1,2.769999951E-2,3.799999831E-3,1.059999969E-2
5.530500156E1,-1.139999926E-2,3.499999875E-3,2.039999887E-2
5.533500312E1,-9.999999776E-3,-1.509999949E-2,8.999999845E-4
5.536497344E1,-1.999999949E-4,-1.439999975E-2,2.060000040E-2
5.538499531E1,-1.169999968E-2,-1.339999959E-2,1.079999935E-2
5.541499844E1,-1.109999977E-2,-1.219999976E-2,-8.599999361E-3
5.544500000E1,-7.999999798E-4,7.299999706E-3,2.070000023E-2
5.547500156E1,-4.999999655E-4,-2.799999900E-3,2.740000002E-2
5.550500469E1,-1.919999905E-2,-3.999999724E-3,-1.999999862E-3
5.553497656E1,5.999999703E-4,-4.999999888E-3,7.599999662E-3
5.555499688E1,-3.680000082E-2,-1.420000009E-2,1.750000007E-2
5.558499844E1,-6.699999794E-3,-4.399999976E-3,-1.999999862E-3
5.561500156E1,2.190000005E-2,3.209999949E-2,-2.199999988E-3
5.564500312E1,1.150000002E-2,-1.730000041E-2,-1.209999993E-2
5.567497344E1,2.109999955E-2,-4.289999977E-2,3.720000014E-2
5.569499531E1,1.399999950E-3,-1.310000010E-2,6.659999490E-2
5.572499844E1,5.799999833E-2,1.589999907E-2,1.750000007E-2
5.575500000E1,5.379999802E-2,-1.289999951E-2,2.730000019E-2
5.578500312E1,1.399999950E-2,7.299999706E-3,-1.179999951E-2
5.581500469E1,3.799999831E-3,7.299999706E-3,1.750000007E-2
5.584497500E1,-6.099999882E-3,1.769999973E-2,-1.179999951E-2
5.586499688E1,4.299999680E-3,2.620000020E-2,7.699999958E-3
5.589499844E1,1.539999992E-2,1.459999941E-2,7.499999832E-3
5.592500156E1,-4.189999774E-2,3.299999982E-3,-1.209999993E-2
5.595500313E1,-2.159999870E-2,-1.579999924E-2,3.689999878E-2
5.598497344E1,-3.119999915E-2,3.700000001E-3,2.019999921E-2
5.600499688E1,-1.150000002E-2,-5.299999844E-3,2.019999921E-2
5.603499844E1,-2.969999984E-2,-1.379999984E-2,1.059999969E-2
